vcc,status1,vpd,status2,txno,acc_z,p,vbat,t,rssi,rh,id,acc_y,acc_x,timestamp
2156,1100,3,0,771,1240,1028.62,3937,15.98,820,75.1,0.27,95,113,2017-03-15T12:26:24.953Z
2159,1100,3,0,770,1256,1028.77,3937,15.98,820,75.2,0.27,100,140,2017-03-15T12:18:46.442Z
2159,1100,4,0,768,1254,1028.87,3928,15.97,820,75.5,0.27,102,143,2017-03-15T12:03:36.028Z
2162,1100,7,0,766,1230,1029.23,3933,15.98,820,75.77,0.27,99,107,2017-03-15T11:48:14.795Z
2159,1100,7,0,765,1241,1029.35,3937,15.98,820,76.01,0.27,108,111,2017-03-15T11:40:42.327Z
2162,1100,7,0,764,1240,1029.53,3937,15.99,820,76.17,0.27,99,120,2017-03-15T11:32:58.801Z
2165,1100,7,0,763,1244,1029.56,3933,15.99,820,76.3,0.27,110,110,2017-03-15T11:25:20.828Z
2162,1100,4,0,762,1242,1029.54,3937,15.99,820,76.44,0.27,105,116,2017-03-15T11:17:43.714Z
2170,1100,5,0,761,1233,1029.64,3937,15.99,820,76.57,0.27,92,112,2017-03-15T11:10:05.297Z
2165,1100,7,0,760,1255,1029.66,3937,15.99,820,76.73,0.27,103,137,2017-03-15T11:02:27.898Z
2165,1100,8,0,759,1240,1029.63,3933,15.99,820,76.87,0.27,96,113,2017-03-15T10:54:54.741Z
2165,1100,7,0,758,1251,1029.78,3937,15.99,820,77,0.27,99,144,2017-03-15T10:47:11.811Z
2167,1100,7,0,757,1228,1029.82,3933,15.99,820,77.16,0.27,95,112,2017-03-15T10:39:33.778Z
2176,1001100,10,0,756,1248,1029.85,3937,15.98,820,77.29,0.27,104,115,2017-03-15T10:32:00.837Z
2165,1100,8,0,755,1240,1029.75,3937,15.98,820,77.48,0.27,102,112,2017-03-15T10:24:18.442Z
2167,1100,5,0,754,1239,1029.76,3933,15.99,820,77.72,0.27,103,118,2017-03-15T10:16:42.392Z
2167,1100,6,0,753,1249,1029.73,3937,15.98,820,77.94,0.27,103,115,2017-03-15T10:09:07.259Z
2167,1100,7,0,752,1248,1029.85,3937,15.99,820,78.24,0.27,100,111,2017-03-15T10:01:26.527Z
2173,1100,7,0,751,1235,1029.92,3937,16,820,78.54,0.27,103,112,2017-03-15T09:53:47.394Z
2173,101100,7,0,750,1243,1029.9,3937,16,820,78.84,0.27,103,116,2017-03-15T09:46:10.735Z
2173,101100,7,0,749,1103,1029.94,3937,16.02,820,79.09,0.27,80,147,2017-03-15T09:38:31.004Z
2173,1100,6,0,748,1241,1030.11,3937,16.02,820,79.41,0.27,102,114,2017-03-15T09:30:53.413Z
2176,1100,5,0,747,1241,1030.06,3941,16.03,820,79.74,0.27,103,115,2017-03-15T09:23:21.184Z
2185,1100,6,0,746,1249,1030.05,3937,16.03,820,80.04,0.27,104,112,2017-03-15T09:15:41.445Z
2182,1100,6,0,745,1241,1029.95,3937,16.04,820,80.34,0.27,104,112,2017-03-15T09:08:00.214Z
2185,101100,5,0,744,1236,1029.78,3937,16.04,820,80.64,0.27,101,116,2017-03-15T09:00:23.040Z
2176,101100,5,0,743,1114,1029.75,3937,16.04,820,80.89,0.27,81,151,2017-03-15T08:52:45.952Z
2176,1100,4,0,742,1236,1029.79,3937,16.03,820,81.05,0.27,99,110,2017-03-15T08:45:13.385Z
2173,1100,4,0,741,1240,1029.74,3937,16.03,820,81.14,0.27,103,112,2017-03-15T08:37:29.879Z
2182,1100,4,0,740,1241,1029.79,3937,16.03,820,81.19,0.27,108,112,2017-03-15T08:29:57.156Z
2176,1001100,3,0,739,1232,1029.62,3937,16,820,81,0.27,99,107,2017-03-15T08:22:14.305Z
2165,1100,3,0,738,1235,1029.69,3937,15.97,820,80.5,0.27,102,111,2017-03-15T08:14:40.941Z
2165,11100,2,0,737,1240,1029.59,3937,15.93,820,79.66,0.27,103,113,2017-03-15T08:06:58.413Z
2167,1001100,3,0,736,1227,1029.33,3941,15.87,820,78.09,0.27,96,115,2017-03-15T07:59:20.546Z
2153,1100,2,0,735,1238,1029.16,3937,15.85,820,77.58,0.27,103,110,2017-03-15T07:51:41.795Z
2162,1100,2,0,734,1252,1029.19,3937,15.83,820,77.39,0.27,108,143,2017-03-15T07:44:03.104Z
2153,1100,2,0,733,1249,1029.23,3937,15.8,820,76.27,0.27,103,135,2017-03-15T07:36:25.526Z
2147,1100,1,0,732,1230,1029.3,3937,15.75,820,74.77,0.27,100,112,2017-03-15T07:28:46.749Z
2144,1100,1,0,731,1232,1029.11,3937,15.72,820,72.87,0.27,103,111,2017-03-15T07:21:08.170Z
2147,1100,1,0,730,1255,1029.05,3937,15.69,820,72.36,0.27,102,135,2017-03-15T07:13:28.951Z
2144,1100,0,0,729,1239,1029.18,3937,15.69,820,71.98,0.27,103,112,2017-03-15T07:05:54.677Z
2147,1100,0,0,728,1246,1029.2,3941,15.68,820,71.77,0.27,99,137,2017-03-15T06:58:12.027Z
2150,1100,0,0,727,1232,1029.08,3937,15.68,820,71.77,0.27,103,111,2017-03-15T06:50:35.245Z
2144,1100,0,0,726,1248,1029.18,3937,15.69,820,71.82,0.27,102,135,2017-03-15T06:42:59.268Z
2141,1100,0,0,725,1247,1029.16,3937,15.7,820,71.82,0.27,99,137,2017-03-15T06:35:15.598Z
2141,1100,0,0,724,1240,1029.26,3941,15.7,820,71.88,0.27,102,108,2017-03-15T06:27:36.392Z
2147,1100,0,0,723,1251,1029.18,3941,15.7,820,71.91,0.27,103,135,2017-03-15T06:20:02.614Z
2144,1100,0,0,722,1226,1029.12,3937,15.72,820,71.91,0.27,94,108,2017-03-15T06:12:19.272Z
2141,1100,0,0,721,1251,1029.13,3937,15.72,820,71.91,0.27,101,140,2017-03-15T06:04:39.996Z
2147,1100,0,0,720,1247,1029.08,3937,15.72,820,71.91,0.27,96,137,2017-03-15T05:57:01.548Z
2150,1100,0,0,719,1248,1029.03,3941,15.73,820,71.91,0.27,99,110,2017-03-15T05:49:22.518Z
2141,1100,0,0,718,1240,1028.95,3937,15.73,820,71.91,0.27,104,111,2017-03-15T05:41:44.308Z
2141,1100,0,0,717,1254,1028.94,3941,15.74,820,71.91,0.27,96,139,2017-03-15T05:34:15.921Z
2147,1100,0,0,716,1236,1028.89,3941,15.74,820,71.96,0.27,99,116,2017-03-15T05:26:28.173Z
2141,1100,0,0,715,1246,1028.77,3937,15.75,820,72.01,0.27,103,135,2017-03-15T05:18:48.476Z
2147,1100,0,0,714,1240,1028.82,3941,15.76,820,72.01,0.27,103,119,2017-03-15T05:11:14.226Z
2150,1100,0,0,713,1251,1029.02,3937,15.76,820,72.07,0.27,102,132,2017-03-15T05:03:31.142Z
2144,1100,0,0,712,1244,1028.99,3937,15.77,820,72.07,0.27,103,113,2017-03-15T04:55:57.941Z
2150,1100,0,0,711,1248,1028.93,3941,15.77,820,72.09,0.27,103,111,2017-03-15T04:48:13.481Z
2144,1100,0,0,710,1230,1028.94,3941,15.77,820,72.12,0.27,101,113,2017-03-15T04:40:35.860Z
2150,1100,0,0,709,1247,1029.05,3941,15.77,820,72.17,0.27,106,137,2017-03-15T04:32:58.001Z
2147,1100,0,0,708,1232,1028.9,3941,15.78,820,72.17,0.27,96,116,2017-03-15T04:25:18.072Z
2144,1100,0,0,707,1252,1028.91,3941,15.78,820,72.17,0.27,105,132,2017-03-15T04:17:40.202Z
2147,1100,0,0,706,1231,1028.99,3937,15.79,820,72.23,0.27,100,112,2017-03-15T04:10:01.269Z
2147,1100,0,0,705,1252,1028.94,3941,15.8,820,72.25,0.27,102,140,2017-03-15T04:02:23.774Z
2144,1100,0,0,704,1240,1029.07,3941,15.8,820,72.3,0.27,102,112,2017-03-15T03:54:44.840Z
2144,1001100,0,0,703,1243,1029.07,3941,15.81,820,72.33,0.27,100,112,2017-03-15T03:47:06.661Z
2156,1100,0,0,702,1232,1029.12,3941,15.81,820,72.41,0.27,103,111,2017-03-15T03:39:27.987Z
2147,1100,0,0,701,1255,1029.02,3941,15.82,820,72.44,0.27,103,138,2017-03-15T03:31:49.365Z
2144,1100,0,0,699,1232,1028.96,3941,15.83,820,72.52,0.27,102,111,2017-03-15T03:16:34.213Z
2153,1100,0,0,698,1252,1029.03,3941,15.84,820,72.57,0.27,104,139,2017-03-15T03:08:55.418Z
2150,1100,0,0,697,1235,1029.04,3941,15.84,820,72.6,0.27,96,110,2017-03-15T03:01:16.352Z
2144,1100,0,0,696,1225,1028.95,3941,15.85,820,72.68,0.27,97,108,2017-03-15T02:53:38.118Z
2153,1100,0,0,695,1241,1028.92,3941,15.85,820,72.76,0.27,103,140,2017-03-15T02:46:01.099Z
2150,1100,0,0,694,1242,1029.15,3937,15.87,820,72.81,0.27,99,142,2017-03-15T02:38:21.334Z
2147,1100,0,0,693,1230,1029.25,3941,15.87,820,72.9,0.27,92,107,2017-03-15T02:30:44.900Z
2147,1100,0,0,692,1244,1029.25,3941,15.88,820,72.97,0.27,104,142,2017-03-15T02:23:05.122Z
2147,1100,0,0,691,1251,1029.16,3941,15.89,820,73.06,0.27,103,137,2017-03-15T02:15:27.296Z
2147,1100,0,0,690,1234,1029.3,3941,15.89,820,73.14,0.27,102,102,2017-03-15T02:07:47.895Z
2150,1100,0,0,689,1246,1029.47,3941,15.89,820,73.17,0.27,100,142,2017-03-15T02:00:11.222Z
2144,1001100,0,0,688,1231,1029.41,3941,15.89,820,73.22,0.27,104,112,2017-03-15T01:52:30.944Z
2156,1100,0,0,687,1244,1029.46,3941,15.89,820,73.3,0.27,103,110,2017-03-15T01:44:52.530Z
2153,1100,0,0,686,1258,1029.56,3941,15.89,820,73.36,0.27,105,140,2017-03-15T01:37:19.374Z
2156,1100,0,0,685,1223,1029.65,3941,15.9,820,73.38,0.27,104,105,2017-03-15T01:29:35.763Z
2150,1100,0,0,684,1240,1029.64,3941,15.9,820,73.43,0.27,103,118,2017-03-15T01:21:57.744Z
2153,1100,0,0,683,1240,1029.63,3941,15.9,820,73.46,0.27,103,115,2017-03-15T01:14:18.802Z
2147,1100,0,0,682,1231,1029.62,3941,15.9,820,73.49,0.27,104,112,2017-03-15T01:06:41.162Z
2147,1100,0,0,681,1243,1029.6,3941,15.9,820,73.52,0.27,105,137,2017-03-15T00:59:02.288Z
2147,1100,0,0,680,1244,1029.6,3941,15.9,820,73.54,0.27,103,140,2017-03-15T00:51:23.960Z
2147,1100,0,0,679,1230,1029.44,3941,15.9,820,73.54,0.27,105,112,2017-03-15T00:43:45.155Z
2150,1100,0,0,678,1239,1029.23,3933,15.9,820,73.59,0.27,106,108,2017-03-15T00:36:06.929Z
2147,1100,0,0,677,1246,1029.2,3941,15.9,820,73.59,0.27,103,137,2017-03-15T00:28:33.678Z
2150,1100,0,0,676,1246,1029.21,3941,15.9,820,73.65,0.27,104,116,2017-03-15T00:20:51.442Z
2159,1100,0,0,675,1240,1029.1,3941,15.89,820,73.65,0.27,104,108,2017-03-15T00:13:11.392Z
2159,1001100,0,0,674,1255,1029.03,3941,15.89,820,73.68,0.27,101,136,2017-03-15T00:05:35.071Z
2147,1100,0,0,673,1244,1029.01,3941,15.89,820,73.73,0.27,103,140,2017-03-14T23:57:59.401Z
2156,1100,0,0,672,1233,1028.93,3941,15.89,820,73.78,0.27,104,113,2017-03-14T23:50:16.989Z
2147,1001100,0,0,671,1234,1028.87,3941,15.88,820,73.81,0.27,99,113,2017-03-14T23:42:37.822Z
2159,1100,0,0,670,1228,1028.81,3941,15.88,820,73.86,0.27,96,111,2017-03-14T23:34:59.168Z
2150,1100,0,0,669,1238,1028.69,3941,15.87,820,73.91,0.27,103,108,2017-03-14T23:27:20.333Z
2153,1100,0,0,668,1240,1028.67,3946,15.85,820,73.88,0.27,103,111,2017-03-14T23:19:44.794Z
2147,1001100,0,0,667,1231,1028.59,3941,15.84,820,73.91,0.27,103,113,2017-03-14T23:12:04.296Z
2159,1100,0,0,666,1236,1028.43,3946,15.83,820,73.99,0.27,102,115,2017-03-14T23:04:24.884Z
2153,1100,0,0,665,1236,1028.52,3946,15.82,820,74.04,0.27,102,115,2017-03-14T22:56:46.513Z
2159,1001100,0,0,664,1238,1028.51,3941,15.8,820,74.13,0.27,100,115,2017-03-14T22:49:09.174Z
2147,1001100,0,0,663,1240,1028.5,3941,15.79,820,74.15,0.27,104,140,2017-03-14T22:41:29.392Z
2159,1001100,0,0,662,1232,1028.56,3946,15.77,820,74.15,0.27,103,113,2017-03-14T22:33:51.351Z
2147,1100,0,0,661,1249,1028.55,3946,15.77,820,73.54,0.27,103,134,2017-03-14T22:26:21.293Z
2144,1100,0,0,660,1231,1028.5,3946,15.77,820,73.24,0.27,103,115,2017-03-14T22:18:32.949Z
2150,1100,0,0,659,1238,1028.52,3946,15.77,820,73.24,0.27,103,113,2017-03-14T22:10:57.043Z
2150,1100,0,0,658,1240,1028.53,3941,15.78,820,73.29,0.27,99,111,2017-03-14T22:03:15.884Z
2153,1100,0,0,657,1235,1028.51,3941,15.79,820,73.35,0.27,102,115,2017-03-14T21:55:39.700Z
2144,1001100,0,0,656,1244,1028.44,3941,15.79,820,73.33,0.27,103,141,2017-03-14T21:48:30.554Z
2156,1100,0,0,655,1240,1028.31,3941,15.8,820,73.29,0.27,103,112,2017-03-14T21:40:19.945Z
2147,1100,0,0,654,1251,1028.31,3946,15.81,820,73.27,0.27,108,136,2017-03-14T21:32:46.098Z
2150,1100,0,0,653,1231,1028.33,3946,15.81,820,73.24,0.27,102,112,2017-03-14T21:25:02.599Z
2144,1100,0,0,652,1248,1028.3,3941,15.82,820,73.24,0.27,103,135,2017-03-14T21:17:24.669Z
2150,1100,0,0,651,1233,1028.22,3946,15.82,820,73.11,0.27,103,112,2017-03-14T21:09:45.887Z
2147,1100,0,0,650,1240,1028.09,3946,15.82,820,72.92,0.27,103,136,2017-03-14T21:02:07.453Z
2147,1100,0,0,649,1254,1028,3946,15.81,820,72.74,0.27,103,143,2017-03-14T20:54:29.414Z
2147,1100,0,0,648,1235,1027.8,3941,15.81,820,72.44,0.27,103,116,2017-03-14T20:46:50.446Z
2153,1100,0,0,647,1240,1027.78,3946,15.81,820,72.23,0.27,100,140,2017-03-14T20:39:12.181Z
2144,1100,0,0,646,1231,1027.79,3946,15.81,820,72.17,0.27,100,110,2017-03-14T20:31:32.987Z
2144,1100,0,0,645,1256,1027.79,3946,15.81,820,72.14,0.27,107,140,2017-03-14T20:23:55.074Z
2150,1100,0,0,644,1238,1027.79,3941,15.8,820,72.12,0.27,105,113,2017-03-14T20:16:17.886Z
2144,1100,0,0,643,1228,1027.67,3946,15.8,820,72.07,0.27,105,118,2017-03-14T20:08:38.336Z
2144,1100,0,0,642,1232,1027.59,3941,15.8,820,71.98,0.27,110,113,2017-03-14T20:01:03.070Z
2150,1100,0,0,641,1249,1027.6,3946,15.79,820,71.93,0.27,103,142,2017-03-14T19:53:21.645Z
2144,1100,0,0,640,1244,1027.57,3941,15.79,820,71.82,0.27,102,140,2017-03-14T19:45:47.594Z
2150,1100,0,0,639,1238,1027.71,3946,15.78,820,71.69,0.27,96,116,2017-03-14T19:38:02.648Z
2147,1100,0,0,638,1240,1027.64,3946,15.79,820,71.56,0.27,102,115,2017-03-14T19:30:24.540Z
2144,1100,0,0,637,1248,1027.43,3946,15.79,820,71.4,0.27,103,143,2017-03-14T19:22:50.249Z
2147,1100,0,0,636,1238,1027.4,3950,15.79,820,71.21,0.27,104,115,2017-03-14T19:15:07.475Z
2144,1100,0,0,635,1232,1027.46,3946,15.79,820,71.07,0.27,97,119,2017-03-14T19:07:28.187Z
2147,1100,0,0,634,1231,1027.39,3946,15.79,820,70.99,0.27,103,118,2017-03-14T18:59:54.687Z
2150,1100,0,0,633,1246,1027.28,3946,15.8,820,70.97,0.27,103,142,2017-03-14T18:52:10.878Z
2153,1001100,0,0,632,1232,1027.32,3946,15.8,820,70.97,0.27,104,118,2017-03-14T18:44:32.347Z
2141,1100,0,0,631,1249,1027.22,3946,15.81,820,71.05,0.27,99,143,2017-03-14T18:36:58.412Z
2147,1100,0,0,630,1242,1027.37,3946,15.82,820,71.16,0.27,104,135,2017-03-14T18:29:15.440Z
2144,1100,0,0,629,1246,1027.3,3946,15.83,820,71.27,0.27,108,142,2017-03-14T18:21:38.206Z
2144,1100,0,0,628,1241,1027.2,3946,15.84,820,71.4,0.27,99,143,2017-03-14T18:13:58.210Z
2150,1100,0,0,627,1228,1027.02,3946,15.85,820,71.59,0.27,102,112,2017-03-14T18:06:20.173Z
2150,1100,0,0,625,1223,1026.87,3946,15.89,820,71.91,0.27,95,111,2017-03-14T17:51:04.019Z
2147,1100,0,0,624,1239,1026.87,3946,15.89,820,72.2,0.27,104,113,2017-03-14T17:43:29.754Z
2153,1100,0,0,623,1248,1026.83,3946,15.9,920,72.34,0.27,110,142,2017-03-14T17:35:53.566Z
2153,1100,0,0,622,1232,1026.86,3946,15.9,820,72.45,0.27,97,119,2017-03-14T17:28:08.265Z
2147,1100,0,0,621,1243,1026.64,3946,15.89,820,72.5,0.27,103,143,2017-03-14T17:20:42.025Z
2147,1100,0,0,620,1230,1026.58,3946,15.89,820,72.5,0.27,103,116,2017-03-14T17:12:51.695Z
2147,1100,0,0,619,1235,1026.62,3946,15.9,820,72.82,0.27,105,112,2017-03-14T17:05:13.874Z
2147,1001100,0,0,618,1236,1026.44,3946,15.92,920,73.06,0.27,103,119,2017-03-14T16:57:40.343Z
2159,1100,0,0,617,1233,1026.53,3946,15.93,820,73.33,0.27,104,120,2017-03-14T16:49:56.766Z
2150,1100,0,0,615,1244,1026.59,3946,15.96,820,73.97,0.27,105,120,2017-03-14T16:34:40.741Z
2159,1100,0,0,614,1233,1026.54,3946,15.98,820,74.26,0.27,103,118,2017-03-14T16:27:02.483Z
2162,1100,0,0,613,1244,1026.64,3950,15.99,820,74.61,0.27,99,123,2017-03-14T16:19:23.894Z
2162,1100,0,0,612,1240,1026.74,3946,16,820,74.88,0.27,103,116,2017-03-14T16:11:49.022Z
2156,1001100,3,0,611,1242,1026.68,3946,16.02,820,75.15,0.27,105,145,2017-03-14T16:04:07.563Z
2167,1001100,3,0,610,1232,1026.7,3946,16.04,820,75.47,0.27,97,115,2017-03-14T15:56:34.492Z
2156,1100,3,0,609,1230,1026.53,3946,16.04,820,75.74,0.27,104,121,2017-03-14T15:48:57.627Z
2165,1100,1,0,607,1230,1026.46,3946,16.06,820,76.26,0.27,102,147,2017-03-14T15:33:37.372Z
2159,1100,0,0,606,1239,1026.62,3946,16.07,820,76.52,0.27,105,119,2017-03-14T15:26:03.118Z
2165,1100,3,0,605,1222,1026.47,3946,16.08,820,76.82,0.27,100,111,2017-03-14T15:18:21.169Z
2159,1100,4,0,604,1248,1026.36,3950,16.07,820,77.09,0.27,110,145,2017-03-14T15:10:45.176Z
2162,1100,5,0,603,1228,1026.35,3950,16.04,820,77.06,0.27,103,113,2017-03-14T15:03:06.146Z
2156,1100,3,0,602,1243,1026.25,3946,15.97,620,76.51,0.27,102,144,2017-03-14T14:55:30.693Z
2153,1100,13,0,601,1240,1026.18,3946,15.92,620,75.34,0.27,108,147,2017-03-14T14:47:49.201Z
2153,1100,16,0,600,1244,1026.25,3946,15.91,620,75.1,0.27,108,144,2017-03-14T14:40:11.157Z
2153,1100,16,0,599,1238,1026.08,3946,15.9,620,75.2,0.27,105,124,2017-03-14T14:32:38.409Z
2156,101100,11,0,598,1254,1026.22,3950,15.89,620,75.5,0.27,126,150,2017-03-14T14:24:54.988Z
2147,1100,2,0,597,1251,1026.06,3946,15.81,520,74.04,0.27,118,67,2017-03-14T14:17:17.009Z
2153,1100,3,0,596,1255,1026,3950,15.8,520,73.78,0.27,120,94,2017-03-14T14:09:39.244Z
2150,1100,11,0,595,1251,1026.04,3946,15.8,520,73.43,0.27,122,86,2017-03-14T14:02:02.759Z
2159,1100,3,0,594,1231,1026.12,3950,15.8,520,73.11,0.27,115,57,2017-03-14T13:54:22.797Z
2159,1100,5,0,593,1260,1026.17,3946,15.81,520,73.83,0.27,116,86,2017-03-14T13:46:44.347Z
2150,1100,1,0,592,1235,1026.15,3946,15.81,520,73.91,0.27,120,62,2017-03-14T13:39:06.412Z
2156,1100,5,0,591,1251,1026.25,3950,15.82,520,74.61,0.27,118,88,2017-03-14T13:31:31.188Z
2156,1100,6,0,589,1254,1026.2,3946,15.84,520,75.23,0.27,118,84,2017-03-14T13:16:13.428Z
2159,1100,4,0,588,1248,1026.16,3946,15.85,520,75.41,0.27,124,86,2017-03-14T13:08:33.619Z
2156,1100,6,0,586,1243,1026.05,3950,15.87,420,75.55,0.27,120,60,2017-03-14T12:53:16.946Z
2165,1100,7,0,585,1240,1026.14,3950,15.88,520,75.78,0.27,120,63,2017-03-14T12:45:45.248Z
2156,1100,7,0,584,1251,1026.26,3950,15.88,520,75.96,0.27,119,87,2017-03-14T12:38:00.688Z
2153,1100,7,0,583,1240,1026.14,3946,15.89,520,76.03,0.27,123,87,2017-03-14T12:30:22.157Z
2153,1100,9,0,582,1248,1026.26,3950,15.89,520,76.09,0.27,120,60,2017-03-14T12:22:43.810Z
2156,1100,7,0,581,1240,1026.23,3950,15.9,520,76.14,0.27,119,57,2017-03-14T12:15:05.544Z
2159,1100,4,0,580,1248,1026.26,3950,15.9,520,76.09,0.27,112,63,2017-03-14T12:07:30.638Z
2159,1100,1,0,579,1240,1026.11,3950,15.91,520,76.09,0.27,116,63,2017-03-14T11:59:48.952Z
2153,1100,4,0,578,1255,1026.14,3946,15.92,520,76.09,0.27,115,88,2017-03-14T11:52:10.716Z
2156,1100,4,0,577,1259,1026.18,3950,15.92,520,76.06,0.27,124,87,2017-03-14T11:44:32.993Z
2156,1100,3,0,576,1244,1026.13,3950,15.93,520,76.06,0.27,120,59,2017-03-14T11:36:54.800Z
2165,1100,3,0,574,1244,1026.11,3950,15.94,520,76.01,0.27,115,63,2017-03-14T11:21:45.817Z
2156,1100,2,0,573,1256,1025.92,3950,15.95,520,75.98,0.27,116,86,2017-03-14T11:13:59.804Z
2153,1100,3,0,572,1247,1025.97,3950,15.95,520,75.96,0.27,121,64,2017-03-14T11:06:22.077Z
2153,1100,2,0,571,1246,1025.97,3950,15.96,520,75.96,0.27,115,67,2017-03-14T10:58:43.581Z
2159,1100,2,0,569,1238,1026.01,3950,15.99,520,75.9,0.27,108,60,2017-03-14T10:43:27.568Z
2153,1100,4,0,567,1241,1025.75,3950,16.03,520,75.85,0.27,116,62,2017-03-14T10:28:12.499Z
2153,1100,3,0,566,1255,1025.83,3950,16.04,520,75.8,0.27,113,84,2017-03-14T10:20:35.537Z
2162,1100,1,0,565,1248,1025.8,3950,16.05,520,75.77,0.27,123,57,2017-03-14T10:12:56.460Z
2156,1100,2,0,564,1248,1025.73,3950,16.05,520,75.69,0.27,121,65,2017-03-14T10:05:19.216Z
2153,1100,2,0,563,1248,1025.7,3950,16.07,520,75.74,0.27,115,92,2017-03-14T09:57:41.054Z
2153,1100,2,0,562,1235,1025.68,3950,16.09,520,75.72,0.27,115,57,2017-03-14T09:50:08.161Z
2153,1100,2,0,561,1248,1025.7,3950,16.11,520,75.67,0.27,116,86,2017-03-14T09:42:28.983Z
2150,1100,1,0,560,1240,1025.67,3950,16.13,520,75.58,0.27,108,60,2017-03-14T09:34:58.408Z
2156,1100,2,0,559,1235,1025.46,3950,16.15,520,75.48,0.27,120,60,2017-03-14T09:27:12.671Z
2153,1100,2,0,558,1242,1025.57,3950,16.19,520,75.37,0.27,118,63,2017-03-14T09:19:34.343Z
2153,1100,1,0,557,1251,1025.55,3950,16.23,520,75.22,0.27,118,88,2017-03-14T09:11:56.364Z
2162,1100,0,0,556,1240,1025.51,3950,16.26,520,75.27,0.27,118,65,2017-03-14T09:04:19.709Z
2153,1100,0,0,555,1252,1025.52,3950,16.32,520,75.27,0.27,118,88,2017-03-14T08:56:42.310Z
2153,1100,0,0,554,1244,1025.32,3950,16.38,520,75.17,0.27,116,83,2017-03-14T08:49:05.160Z
2162,1100,6,0,553,1241,1025.37,3950,16.47,420,74.98,0.27,119,56,2017-03-14T08:41:29.322Z
2159,101100,2,0,552,1240,1025.31,3950,16.49,720,75.14,0.27,115,63,2017-03-14T08:33:51.716Z
2162,1100,0,0,551,1238,1025.33,3950,16.37,620,75.38,0.27,56,6,2017-03-14T08:26:15.801Z
2153,1100,0,0,550,1248,1025.31,3950,16.36,620,75.19,0.27,63,6,2017-03-14T08:18:38.651Z
2162,1100,0,0,549,1232,1025.22,3950,16.37,620,75.3,0.27,55,-6,2017-03-14T08:11:01.925Z
2165,1100,0,0,547,1255,1025.14,3955,16.35,620,75.41,0.27,63,3,2017-03-14T07:55:52.709Z
2165,1001100,0,0,546,1246,1025.23,3950,16.34,620,75.54,0.27,63,7,2017-03-14T07:48:11.387Z
2153,1100,0,0,545,1260,1025.32,3950,16.32,620,75.59,0.27,67,25,2017-03-14T07:40:35.318Z
2153,1100,0,0,544,1260,1025.45,3950,16.29,620,75.64,0.27,60,3,2017-03-14T07:32:57.986Z
2150,1100,0,0,543,1252,1025.51,3950,16.27,520,75.64,0.27,65,28,2017-03-14T07:25:20.841Z
2150,1100,0,0,542,1260,1025.52,3950,16.23,620,75.27,0.27,60,30,2017-03-14T07:17:47.726Z
2150,1100,0,0,541,1258,1025.5,3955,16.15,620,73.71,0.27,65,30,2017-03-14T07:10:06.937Z
2150,1100,0,0,540,1262,1025.44,3950,16.14,620,73.79,0.27,60,27,2017-03-14T07:02:31.016Z
2150,1100,0,0,539,1251,1025.45,3950,16.17,620,74,0.27,62,1,2017-03-14T06:54:52.969Z
2150,1100,0,0,538,1251,1025.37,3950,16.15,620,73.82,0.27,56,6,2017-03-14T06:47:20.671Z
2150,1100,0,0,537,1258,1025.31,3955,16.17,620,74.11,0.27,67,28,2017-03-14T06:39:39.509Z
2153,1100,0,0,536,1259,1025.25,3955,16.17,620,74.22,0.27,65,-1,2017-03-14T06:32:01.312Z
2150,1100,0,0,535,1264,1025.28,3955,16.17,620,74.41,0.27,63,28,2017-03-14T06:24:24.612Z
2159,1100,0,0,534,1249,1025.28,3955,16.17,520,74.84,0.27,55,-1,2017-03-14T06:16:47.955Z
2153,1100,0,0,533,1260,1025.35,3955,16.17,620,74.65,0.27,65,23,2017-03-14T06:09:09.994Z
2150,1100,0,0,532,1250,1025.3,3955,16.18,620,74.68,0.27,62,3,2017-03-14T06:01:33.694Z
2153,1100,0,0,531,1255,1025.37,3955,16.18,620,74.6,0.27,63,3,2017-03-14T05:53:55.885Z
2153,1100,0,0,530,1264,1025.34,3955,16.18,520,74.78,0.27,67,31,2017-03-14T05:46:18.456Z
2159,1100,0,0,529,1254,1025.34,3955,16.19,520,74.71,0.27,62,7,2017-03-14T05:38:40.628Z
2156,1100,0,0,528,1260,1025.36,3955,16.2,620,74.6,0.27,62,7,2017-03-14T05:31:04.512Z
2150,1100,0,0,527,1240,1025.21,3955,16.2,520,74.57,0.27,56,-1,2017-03-14T05:23:27.191Z
2159,1100,0,0,526,1264,1025.16,3955,16.21,620,74.52,0.27,63,28,2017-03-14T05:15:49.474Z
2150,1100,0,0,525,1250,1025.27,3955,16.22,520,74.15,0.27,65,6,2017-03-14T05:08:14.573Z
2156,1100,0,0,524,1258,1025.15,3955,16.22,620,74.15,0.27,62,31,2017-03-14T05:00:37.996Z
2150,1100,0,0,523,1251,1024.95,3955,16.23,620,74.09,0.27,63,6,2017-03-14T04:52:59.032Z
2150,1100,0,0,522,1254,1024.73,3955,16.21,620,73.98,0.27,63,3,2017-03-14T04:45:20.990Z
2150,1100,0,0,521,1246,1024.72,3955,16.22,520,74.23,0.27,70,-1,2017-03-14T04:37:46.191Z
2153,1100,0,0,519,1238,1024.81,3955,16.22,520,74.39,0.27,48,3,2017-03-14T04:22:33.434Z
2162,1100,0,0,518,1247,1024.95,3955,16.23,520,74.68,0.27,67,4,2017-03-14T04:14:52.082Z
2153,1100,0,0,517,1255,1024.88,3955,16.23,520,74.52,0.27,60,31,2017-03-14T04:07:25.701Z
2153,1100,0,0,516,1257,1024.95,3955,16.23,520,74.39,0.27,62,4,2017-03-14T03:59:39.033Z
2153,1100,0,0,515,1251,1024.95,3955,16.23,520,74.39,0.27,60,3,2017-03-14T03:52:00.710Z
2153,1100,0,0,514,1248,1025.05,3955,16.25,520,74.36,0.27,62,3,2017-03-14T03:44:35.144Z
2153,1100,0,0,513,1255,1024.99,3955,16.25,520,74.71,0.27,64,3,2017-03-14T03:36:49.095Z
2153,1100,0,0,512,1249,1025.13,3955,16.25,520,74.71,0.27,60,6,2017-03-14T03:29:09.802Z
2159,1100,0,0,511,1254,1025.12,3955,16.26,520,74.52,0.27,60,3,2017-03-14T03:21:34.731Z
2150,1100,0,0,510,1254,1025.21,3955,16.26,520,74.44,0.27,56,-1,2017-03-14T03:13:55.445Z
2150,1001100,0,0,509,1248,1025.18,3955,16.27,620,74.92,0.27,56,3,2017-03-14T03:06:18.837Z
2162,1100,0,0,508,1248,1025.28,3955,16.28,520,74.63,0.27,62,-1,2017-03-14T02:58:40.417Z
2165,1001100,0,0,507,1252,1025.34,3955,16.27,620,74.71,0.27,57,7,2017-03-14T02:51:07.120Z
2153,1100,0,0,506,1247,1025.37,3955,16.29,520,74.79,0.27,62,7,2017-03-14T02:43:26.181Z
2153,1100,0,0,505,1260,1025.46,3955,16.31,620,74.92,0.27,68,23,2017-03-14T02:35:54.176Z
2162,1100,0,0,504,1250,1025.38,3955,16.31,520,74.98,0.27,63,3,2017-03-14T02:28:12.574Z
2156,1100,0,0,503,1248,1025.49,3955,16.33,620,75.14,0.27,63,-1,2017-03-14T02:20:42.188Z
2159,1100,0,0,502,1256,1025.5,3955,16.33,520,74.81,0.27,71,7,2017-03-14T02:12:58.374Z
2156,11100,0,0,500,1260,1025.47,3955,16.35,520,75.11,0.27,59,30,2017-03-14T01:57:45.312Z
2165,1001100,0,0,499,1238,1025.73,3955,16.36,620,75.19,0.27,57,-4,2017-03-14T01:50:06.717Z
2153,1100,0,0,498,1255,1025.76,3955,16.36,620,74.9,0.27,63,6,2017-03-14T01:42:29.948Z
2156,1100,0,0,497,1252,1025.99,3955,16.38,620,75.35,0.27,64,1,2017-03-14T01:34:53.555Z
2156,1100,0,0,496,1264,1025.91,3959,16.38,620,75.3,0.27,57,32,2017-03-14T01:27:15.504Z
2159,1100,0,0,495,1251,1026.03,3955,16.39,620,75.33,0.27,55,3,2017-03-14T01:19:39.372Z
2162,1100,0,0,493,1262,1026,3959,16.41,620,75.47,0.27,60,3,2017-03-14T01:04:25.675Z
2156,1100,0,0,492,1248,1026.03,3955,16.43,620,75.44,0.27,64,7,2017-03-14T00:56:54.807Z
2156,1001100,0,0,491,1257,1026.08,3950,16.44,520,75.63,0.27,67,4,2017-03-14T00:49:11.898Z
2167,1001100,0,0,490,1248,1026.28,3959,16.44,620,75.97,0.27,59,6,2017-03-14T00:41:36.680Z
2156,1100,0,0,489,1246,1026.26,3959,16.46,620,75.9,0.27,56,7,2017-03-14T00:33:58.435Z
2159,1100,0,0,488,1252,1026.36,3955,16.46,620,75.97,0.27,60,7,2017-03-14T00:26:21.890Z
2159,1100,0,0,487,1248,1026.45,3955,16.47,620,76.22,0.27,63,7,2017-03-14T00:18:45.397Z
2156,1100,0,0,486,1251,1026.45,3959,16.48,620,76.46,0.27,56,-1,2017-03-14T00:11:09.415Z
2162,1100,0,0,484,1244,1026.43,3955,16.51,620,76.86,0.27,51,3,2017-03-13T23:56:00.549Z
2165,1100,0,0,483,1252,1026.47,3955,16.56,620,77.03,0.27,64,3,2017-03-13T23:48:19.213Z
2162,1001100,0,0,482,1241,1026.48,3955,16.57,620,77.62,0.27,60,3,2017-03-13T23:40:48.587Z
2173,1100,0,0,481,1257,1026.58,3959,16.57,620,78.13,0.27,68,6,2017-03-13T23:33:11.668Z
2167,1100,0,0,480,1257,1026.63,3955,16.61,620,78.38,0.27,60,4,2017-03-13T23:25:37.533Z
2165,1100,0,0,479,1248,1026.53,3959,16.59,620,78.85,0.27,64,7,2017-03-13T23:17:53.999Z
2173,1100,0,0,478,1264,1026.53,3959,16.59,620,78.6,0.27,57,31,2017-03-13T23:10:18.765Z
2165,1100,0,0,477,1252,1026.54,3959,16.59,620,78.49,0.27,65,7,2017-03-13T23:02:41.065Z
2173,1100,0,0,476,1254,1026.54,3959,16.59,620,78.41,0.27,55,1,2017-03-13T22:55:04.505Z
2170,1100,0,0,475,1252,1026.59,3959,16.59,620,78.35,0.27,59,6,2017-03-13T22:47:29.675Z
2167,1100,0,0,474,1255,1026.54,3955,16.59,520,78.25,0.27,63,-2,2017-03-13T22:39:50.796Z
2162,1100,0,0,473,1254,1026.41,3959,16.59,520,78.32,0.27,57,8,2017-03-13T22:32:15.134Z
2167,1100,0,0,472,1248,1026.33,3959,16.61,620,78.46,0.27,62,4,2017-03-13T22:24:38.000Z
2170,1100,0,0,471,1251,1026.28,3955,16.58,920,78.32,0.27,59,-1,2017-03-13T22:17:02.830Z
2162,1100,0,0,470,1260,1026.31,3959,16.59,920,78.66,0.27,58,31,2017-03-13T22:09:24.992Z
2162,1100,0,0,469,1250,1026.24,3959,16.57,920,79.09,0.27,62,6,2017-03-13T22:01:50.116Z
2165,1100,0,0,467,1254,1026.31,3959,16.58,920,78.87,0.27,63,7,2017-03-13T21:46:36.390Z
2159,1100,0,0,466,1251,1026.36,3959,16.58,920,78.9,0.27,63,3,2017-03-13T21:39:00.086Z
2159,1100,0,0,465,1248,1026.42,3959,16.58,920,78.6,0.27,60,7,2017-03-13T21:31:22.497Z
2162,1100,0,0,464,1252,1026.51,3959,16.58,920,78.54,0.27,60,-5,2017-03-13T21:23:48.821Z
2159,1100,0,0,463,1260,1026.43,3955,16.58,920,77.7,0.27,62,33,2017-03-13T21:16:14.864Z
2159,1100,0,0,462,1264,1026.44,3959,16.58,920,78.82,0.27,55,3,2017-03-13T21:08:33.198Z
2153,1100,0,0,461,1255,1026.4,3959,16.58,920,78.19,0.27,63,24,2017-03-13T21:00:58.213Z
2153,1100,0,0,460,1266,1026.46,3955,16.57,920,78.03,0.27,60,33,2017-03-13T20:53:19.440Z
2156,1100,0,0,459,1252,1026.46,3959,16.56,920,77.67,0.27,56,3,2017-03-13T20:45:44.609Z
2156,1100,0,0,458,1255,1026.47,3955,16.56,820,77.94,0.27,52,31,2017-03-13T20:38:11.809Z
2159,1100,0,0,457,1264,1026.37,3959,16.55,920,77.19,0.27,60,30,2017-03-13T20:30:36.064Z
2156,1100,0,0,456,1254,1026.33,3959,16.54,920,76.78,0.27,63,4,2017-03-13T20:22:53.079Z
2150,1100,0,0,455,1249,1026.4,3959,16.52,920,76.91,0.27,60,3,2017-03-13T20:15:21.963Z
2153,1100,0,0,454,1255,1026.42,3959,16.49,920,76.8,0.27,63,6,2017-03-13T20:07:40.845Z
2150,1100,0,0,453,1256,1026.44,3959,16.49,920,76.57,0.27,60,31,2017-03-13T20:00:03.125Z
2153,1100,0,0,452,1255,1026.58,3959,16.47,920,76.22,0.27,64,4,2017-03-13T19:52:26.368Z
2147,1100,0,0,451,1246,1026.55,3959,16.46,920,76.19,0.27,49,6,2017-03-13T19:44:59.840Z
2147,1100,0,0,450,1267,1026.59,3959,16.42,920,75.25,0.27,60,25,2017-03-13T19:37:12.453Z
2156,1001100,0,0,449,1256,1026.61,3959,16.39,820,75.14,0.27,54,3,2017-03-13T19:29:36.517Z
2144,1100,0,0,448,1260,1026.64,3959,16.35,920,74.87,0.27,60,27,2017-03-13T19:22:03.891Z
2147,1100,0,0,447,1248,1026.69,3959,16.31,920,74.74,0.27,63,-1,2017-03-13T19:14:21.455Z
2141,1100,0,0,446,1260,1026.6,3959,16.26,920,74.6,0.27,57,-1,2017-03-13T19:06:43.872Z
2141,1100,0,0,445,1251,1026.56,3963,16.25,920,73.82,0.27,63,32,2017-03-13T18:59:06.447Z
2138,1100,0,0,444,1255,1026.48,3959,16.25,920,72.67,0.27,56,25,2017-03-13T18:51:30.145Z
2135,1100,1,0,442,1238,1026.41,3963,16.11,820,70.79,0.27,56,-1,2017-03-13T18:36:14.103Z
2135,100,1,0,441,1262,1026.4,3963,16.03,820,68.96,0.27,56,28,2017-03-13T18:28:36.088Z
2135,100,1,0,440,1247,1026.3,3959,15.96,820,67.92,0.27,57,1,2017-03-13T18:20:57.832Z
2141,100,0,0,439,1270,1026.29,3959,15.92,820,67.47,0.27,60,23,2017-03-13T18:13:25.131Z
2141,100,0,0,437,1255,1026.08,3959,15.92,820,67.41,0.27,62,7,2017-03-13T17:58:03.036Z
2135,100,0,0,436,1254,1026.04,3959,15.92,820,67.41,0.27,62,3,2017-03-13T17:50:33.464Z
2138,100,0,0,435,1251,1026.02,3963,15.93,820,67.49,0.27,57,-1,2017-03-13T17:42:51.497Z
2135,100,0,0,434,1257,1026.02,3959,15.94,820,67.49,0.27,55,27,2017-03-13T17:35:08.776Z
2132,1000100,0,0,433,1246,1025.94,3959,15.95,820,67.54,0.27,52,1,2017-03-13T17:27:30.619Z
2144,100,0,0,432,1260,1025.99,3963,15.95,820,67.6,0.27,56,25,2017-03-13T17:19:52.613Z
2144,100,0,0,431,1260,1025.88,3959,15.95,820,67.76,0.27,56,23,2017-03-13T17:12:18.954Z
2135,100,1,0,430,1244,1025.79,3963,15.96,820,67.87,0.27,54,7,2017-03-13T17:04:37.212Z
2135,100,1,0,429,1260,1025.68,3959,15.97,820,68,0.27,59,24,2017-03-13T16:56:57.904Z
2141,100,1,0,428,1251,1025.76,3959,15.98,820,68.11,0.27,56,25,2017-03-13T16:49:20.232Z
2147,1000100,2,0,427,1263,1025.64,3959,15.98,820,68.14,0.27,59,30,2017-03-13T16:41:47.983Z
2135,100,2,0,426,1272,1025.64,3963,15.99,820,68.19,0.27,56,27,2017-03-13T16:34:09.930Z
2138,100,3,0,425,1254,1025.66,3959,15.99,820,68.19,0.27,63,6,2017-03-13T16:26:25.469Z
2138,100,3,0,424,1255,1025.57,3963,15.99,820,68.21,0.27,57,4,2017-03-13T16:18:48.158Z
2144,100,2,0,422,1254,1025.54,3963,16,820,68.37,0.27,56,7,2017-03-13T16:03:32.676Z
2138,100,3,0,421,1264,1025.45,3963,16.03,820,68.43,0.27,55,28,2017-03-13T15:55:54.965Z
2141,100,1,0,420,1248,1025.33,3963,16.04,820,68.43,0.27,62,-1,2017-03-13T15:48:15.015Z
2147,100,1,0,419,1264,1025.3,3941,16.04,820,68.4,0.27,56,24,2017-03-13T15:40:37.503Z
2138,100,2,0,418,1262,1025.25,3963,16.04,820,68.4,0.27,57,24,2017-03-13T15:32:59.020Z
2135,100,2,0,417,1264,1025.23,3963,16.04,820,68.4,0.27,55,20,2017-03-13T15:25:22.141Z
2135,100,2,0,416,1255,1025.24,3963,16.04,820,68.37,0.27,55,23,2017-03-13T15:17:42.812Z
2135,100,3,0,415,1259,1025.29,3963,16.04,820,68.37,0.27,56,28,2017-03-13T15:10:04.873Z
2141,100,4,0,414,1254,1025.21,3963,16.04,820,68.37,0.27,60,7,2017-03-13T15:02:27.014Z
2138,100,5,0,413,1244,1025.26,3963,16.04,820,68.37,0.27,55,1,2017-03-13T14:54:49.116Z
2138,100,3,0,412,1260,1025.34,3963,16.04,820,68.32,0.27,56,27,2017-03-13T14:47:16.306Z
2141,100,4,0,411,1248,1025.25,3963,16.04,820,68.43,0.27,52,4,2017-03-13T14:39:33.308Z
2135,100,5,0,410,1252,1025.19,3963,16.04,820,68.46,0.27,62,23,2017-03-13T14:31:54.817Z
2138,100,6,0,409,1251,1025.12,3963,16.04,820,68.51,0.27,56,4,2017-03-13T14:24:21.354Z
2141,100,4,0,407,1262,1025.01,3963,16.04,820,68.6,0.27,55,20,2017-03-13T14:09:07.899Z
2144,100,3,0,406,1247,1025.01,3963,16.05,820,68.81,0.27,52,-1,2017-03-13T14:01:28.626Z
2144,100,3,0,405,1248,1024.89,3959,16.05,820,68.89,0.27,56,-1,2017-03-13T13:53:44.257Z
2144,100,8,0,404,1248,1024.88,3963,16.06,820,69.05,0.27,59,1,2017-03-13T13:46:06.866Z
2138,100,4,0,403,1255,1024.94,3963,16.07,820,69.15,0.27,55,3,2017-03-13T13:38:34.830Z
2141,100,5,0,402,1255,1025.06,3968,16.07,820,69.21,0.27,60,25,2017-03-13T13:30:52.409Z
2138,100,6,0,401,1252,1024.98,3963,16.07,820,69.31,0.27,57,1,2017-03-13T13:23:19.495Z
2138,100,7,0,400,1248,1025.1,3963,16.07,820,69.37,0.27,56,3,2017-03-13T13:15:35.982Z
2141,100,6,0,399,1267,1025,3963,16.08,820,69.53,0.27,60,25,2017-03-13T13:07:58.528Z
2144,100,8,0,398,1241,1024.76,3963,16.08,820,69.56,0.27,60,3,2017-03-13T13:00:20.013Z
2138,100,6,0,397,1248,1024.74,3963,16.09,820,69.66,0.27,60,-1,2017-03-13T12:52:41.344Z
2144,100,5,0,396,1272,1024.75,3963,16.1,820,69.75,0.27,57,30,2017-03-13T12:45:07.884Z
2144,100,6,0,395,1259,1024.9,3968,16.1,820,69.93,0.27,58,28,2017-03-13T12:37:25.899Z
2138,1100,5,0,394,1244,1024.84,3963,16.11,820,70.12,0.27,56,-1,2017-03-13T12:29:49.148Z
2138,1100,7,0,393,1251,1024.95,3963,16.12,820,70.26,0.27,60,7,2017-03-13T12:22:13.643Z
2144,1100,7,0,392,1267,1024.98,3963,16.12,820,70.37,0.27,59,23,2017-03-13T12:14:31.700Z
2141,1100,8,0,391,1249,1024.94,3963,16.14,820,70.49,0.27,62,1,2017-03-13T12:06:56.309Z
2147,1100,8,0,390,1251,1024.9,3963,16.14,820,70.66,0.27,60,-4,2017-03-13T11:59:16.195Z
2144,1100,7,0,389,1264,1024.82,3968,16.15,820,70.85,0.27,57,5,2017-03-13T11:51:38.548Z
2147,1100,8,0,388,1254,1024.75,3968,16.15,820,71.09,0.27,60,7,2017-03-13T11:44:05.938Z
2150,1100,8,0,387,1259,1024.71,3963,16.17,820,71.33,0.27,63,3,2017-03-13T11:36:27.628Z
2144,1100,7,0,386,1260,1024.71,3963,16.18,820,71.54,0.27,64,25,2017-03-13T11:28:49.096Z
2153,1001100,6,0,385,1251,1024.7,3963,16.19,820,71.68,0.27,62,3,2017-03-13T11:21:13.699Z
2141,1100,6,0,384,1244,1024.78,3963,16.2,820,71.81,0.27,60,1,2017-03-13T11:13:36.828Z
2144,1100,5,0,382,1256,1024.72,3963,16.22,820,72.19,0.27,63,-4,2017-03-13T10:58:14.781Z
2147,1100,5,0,380,1246,1024.74,3963,16.24,820,72.67,0.27,57,3,2017-03-13T10:42:58.227Z
2156,1100,7,0,379,1248,1024.69,3968,16.25,820,72.88,0.27,59,3,2017-03-13T10:35:21.072Z
2147,1100,6,0,378,1246,1024.72,3968,16.26,820,73.1,0.27,57,6,2017-03-13T10:27:43.310Z
2147,1100,7,0,377,1260,1024.78,3963,16.26,820,73.32,0.27,63,31,2017-03-13T10:20:05.237Z
2150,1100,8,0,376,1246,1024.58,3968,16.27,820,73.55,0.27,57,6,2017-03-13T10:12:34.041Z
2153,1100,7,0,375,1254,1024.47,3968,16.27,820,73.77,0.27,56,3,2017-03-13T10:04:51.346Z
2147,1100,9,0,374,1254,1024.53,3968,16.29,820,74.12,0.27,56,-2,2017-03-13T09:57:13.466Z
2150,1100,8,0,373,1264,1024.55,3968,16.29,820,74.33,0.27,57,28,2017-03-13T09:49:36.110Z
2150,1100,7,0,372,1254,1024.59,3968,16.32,820,74.81,0.27,56,3,2017-03-13T09:41:59.186Z
2150,1100,6,0,371,1256,1024.69,3968,16.32,820,75.14,0.27,62,28,2017-03-13T09:34:27.057Z
2156,1100,5,0,369,1247,1024.56,3968,16.34,820,76.03,0.27,57,-4,2017-03-13T09:19:12.358Z
2162,1100,3,0,368,1249,1024.55,3968,16.35,820,76.86,0.27,57,3,2017-03-13T09:11:35.015Z
2159,1100,5,0,367,1246,1024.49,3968,16.35,820,77.15,0.27,68,-1,2017-03-13T09:03:53.084Z
2159,1100,5,0,366,1264,1024.55,3963,16.35,820,77.69,0.27,63,28,2017-03-13T08:56:16.515Z
2150,1100,5,0,365,1252,1024.31,3968,16.33,820,78.5,0.27,63,-1,2017-03-13T08:48:38.796Z
2147,1100,5,0,364,1251,1024.18,3963,16.22,820,74.23,0.27,59,3,2017-03-13T08:41:00.312Z
2147,1100,7,0,363,1255,1024.13,3968,16.19,820,73.66,0.27,60,3,2017-03-13T08:33:22.961Z
2153,1100,6,0,362,1254,1024.01,3968,16.19,820,73.74,0.27,63,0,2017-03-13T08:25:46.682Z
2150,1100,5,0,361,1259,1023.86,3963,16.2,820,74.06,0.27,59,28,2017-03-13T08:18:07.923Z
2147,1100,4,0,360,1254,1023.84,3968,16.21,920,74.44,0.27,60,1,2017-03-13T08:10:32.416Z
2147,1100,3,0,359,1263,1023.72,3968,16.22,820,74.95,0.27,60,31,2017-03-13T08:02:52.532Z
2153,1100,3,0,358,1248,1023.71,3963,16.23,820,75.62,0.27,63,3,2017-03-13T07:55:20.751Z
2156,1100,3,0,357,1246,1023.7,3968,16.24,820,76.42,0.27,60,4,2017-03-13T07:47:43.259Z
2150,1100,2,0,356,1262,1023.63,3968,16.25,820,77.31,0.27,60,30,2017-03-13T07:39:59.981Z
2153,1100,2,0,355,1256,1023.59,3968,16.23,920,76.61,0.27,63,-5,2017-03-13T07:32:22.712Z
2153,1100,0,0,354,1264,1023.45,3968,16.24,920,79.48,0.27,60,27,2017-03-13T07:24:45.656Z
2141,1100,0,0,352,1255,1023.37,3968,16.14,920,75.91,0.27,62,22,2017-03-13T07:09:30.709Z
2138,1100,0,0,350,1252,1023.17,3968,15.98,920,70.2,0.27,59,19,2017-03-13T06:54:15.797Z
2132,1000100,0,0,349,1241,1023.16,3968,15.95,920,69.15,0.27,56,4,2017-03-13T06:46:36.801Z
2144,100,0,0,348,1262,1023.19,3968,15.96,920,69.05,0.27,60,23,2017-03-13T06:38:59.083Z
2135,100,0,0,346,1244,1022.96,3968,15.98,920,69.15,0.27,56,3,2017-03-13T06:23:42.923Z
2135,100,0,0,345,1264,1022.87,3968,15.99,920,69.18,0.27,57,22,2017-03-13T06:16:08.483Z
2135,100,0,0,344,1260,1022.84,3968,16,920,69.23,0.27,60,30,2017-03-13T06:08:26.402Z
2135,100,0,0,343,1264,1022.73,3968,16.02,920,69.28,0.27,56,24,2017-03-13T06:00:54.083Z
2135,100,0,0,342,1260,1022.69,3968,16.03,820,69.26,0.27,63,23,2017-03-13T05:53:10.713Z
2141,100,0,0,341,1251,1022.49,3968,16.04,920,69.28,0.27,60,1,2017-03-13T05:45:34.818Z
2141,100,0,0,340,1240,1022.29,3968,16.04,920,69.28,0.27,55,1,2017-03-13T05:37:55.213Z
2132,100,0,0,339,1260,1022.24,3972,16.05,820,69.31,0.27,55,31,2017-03-13T05:30:16.695Z
2135,100,0,0,338,1264,1022.07,3968,16.05,820,69.29,0.27,60,22,2017-03-13T05:22:39.459Z
2135,100,0,0,337,1254,1022.12,3972,16.06,920,69.34,0.27,59,-2,2017-03-13T05:15:00.505Z
2144,100,0,0,336,1260,1022.03,3968,16.07,920,69.37,0.27,57,5,2017-03-13T05:07:22.451Z
2144,100,0,0,335,1266,1021.91,3968,16.08,920,69.34,0.27,56,27,2017-03-13T04:59:45.033Z
2135,100,0,0,334,1252,1021.81,3972,16.1,920,69.37,0.27,54,28,2017-03-13T04:52:07.746Z
2135,100,0,0,333,1262,1021.8,3972,16.11,820,69.34,0.27,60,28,2017-03-13T04:44:28.591Z
2135,100,0,0,332,1260,1021.72,3972,16.11,920,69.31,0.27,60,24,2017-03-13T04:36:51.622Z
2135,100,0,0,331,1252,1021.78,3972,16.13,920,69.34,0.27,60,27,2017-03-13T04:29:12.603Z
2138,100,0,0,330,1259,1021.76,3972,16.13,920,69.34,0.27,56,28,2017-03-13T04:21:35.462Z
2138,100,0,0,329,1243,1021.64,3968,16.14,920,69.37,0.27,56,3,2017-03-13T04:13:57.287Z
2141,100,0,0,328,1258,1021.76,3972,16.15,820,69.37,0.27,59,30,2017-03-13T04:06:19.863Z
2147,100,0,0,327,1256,1021.68,3968,16.18,920,69.37,0.27,60,25,2017-03-13T03:58:42.715Z
2144,100,0,0,325,1244,1021.7,3972,16.2,820,69.43,0.27,63,7,2017-03-13T03:43:26.541Z
2135,100,0,0,323,1259,1021.64,3968,16.23,920,69.46,0.27,58,19,2017-03-13T03:28:11.607Z
2138,100,0,0,322,1263,1021.56,3968,16.24,920,69.46,0.27,56,26,2017-03-13T03:20:34.159Z
2141,100,0,0,321,1248,1021.64,3972,16.25,920,69.46,0.27,60,6,2017-03-13T03:12:56.436Z
2135,100,0,0,320,1256,1021.51,3972,16.27,920,69.48,0.27,51,30,2017-03-13T03:05:28.811Z
2135,100,0,0,319,1251,1021.29,3972,16.28,920,69.48,0.27,60,27,2017-03-13T02:57:42.163Z
2135,100,0,0,318,1265,1021.11,3968,16.29,920,69.4,0.27,57,22,2017-03-13T02:50:04.211Z
2144,100,0,0,317,1235,1021.21,3972,16.31,920,69.4,0.27,51,-2,2017-03-13T02:42:26.156Z
2135,100,0,0,316,1264,1021.13,3972,16.32,920,69.4,0.27,62,25,2017-03-13T02:34:49.388Z
2138,100,0,0,315,1254,1021.14,3972,16.33,920,69.4,0.27,60,-1,2017-03-13T02:27:12.569Z
2141,100,0,0,314,1255,1021.24,3972,16.35,920,69.4,0.27,63,35,2017-03-13T02:19:35.016Z
2147,100,0,0,313,1255,1021.28,3972,16.36,920,69.37,0.27,60,3,2017-03-13T02:11:57.917Z
2141,100,0,0,312,1247,1021.12,3972,16.38,820,69.37,0.27,57,7,2017-03-13T02:04:26.181Z
2135,100,0,0,310,1252,1021.15,3972,16.4,820,69.35,0.27,59,25,2017-03-13T01:49:06.591Z
2138,100,0,0,309,1256,1021.11,3972,16.42,920,69.27,0.27,60,27,2017-03-13T01:41:29.526Z
2135,100,0,0,308,1262,1021.17,3972,16.43,920,69.24,0.27,56,23,2017-03-13T01:33:52.162Z
2141,100,0,0,307,1248,1021.05,3972,16.46,920,69.11,0.27,57,-1,2017-03-13T01:26:15.392Z
2138,100,0,0,306,1248,1021.08,3972,16.48,820,69.05,0.27,54,3,2017-03-13T01:18:39.023Z
2135,100,0,0,305,1264,1020.94,3972,16.49,920,69.05,0.27,63,27,2017-03-13T01:11:01.635Z
2144,100,0,0,304,1247,1020.97,3972,16.5,920,69.05,0.27,56,3,2017-03-13T01:03:25.139Z
2141,100,0,0,303,1260,1020.89,3972,16.52,920,69.05,0.27,60,25,2017-03-13T00:55:50.305Z
2135,100,0,0,302,1244,1020.72,3972,16.54,920,69.11,0.27,52,-2,2017-03-13T00:48:11.289Z
2144,100,0,0,301,1248,1020.67,3977,16.56,820,69.17,0.27,57,25,2017-03-13T00:40:38.516Z
2141,100,0,0,300,1246,1020.52,3972,16.58,920,69.14,0.27,54,6,2017-03-13T00:32:58.432Z
2135,100,0,0,299,1262,1020.28,3972,16.61,820,69.14,0.27,56,27,2017-03-13T00:25:22.191Z
2144,100,0,0,298,1242,1020.25,3972,16.63,920,69.14,0.27,54,3,2017-03-13T00:17:49.988Z
2141,100,0,0,297,1268,1020.08,3972,16.64,920,69.17,0.27,60,28,2017-03-13T00:10:10.015Z
2135,100,0,0,296,1241,1019.92,3972,16.67,920,69.08,0.27,56,-2,2017-03-13T00:02:34.596Z
2135,100,0,0,295,1252,1019.81,3972,16.68,920,69.11,0.27,62,31,2017-03-12T23:54:55.893Z
2135,100,0,0,294,1260,1019.93,3972,16.7,920,69.14,0.27,57,28,2017-03-12T23:47:19.227Z
2141,100,0,0,293,1250,1019.83,3972,16.73,920,69.14,0.27,56,3,2017-03-12T23:39:43.418Z
2144,100,0,0,292,1246,1019.75,3972,16.74,820,69.17,0.27,63,9,2017-03-12T23:32:07.139Z
2144,100,0,0,291,1248,1019.7,3972,16.77,920,69.17,0.27,63,1,2017-03-12T23:24:29.720Z
2138,100,0,0,289,1251,1019.57,3972,16.81,820,69.27,0.27,56,25,2017-03-12T23:09:18.881Z
2144,100,0,0,288,1244,1019.62,3972,16.83,920,69.33,0.27,59,0,2017-03-12T23:01:44.600Z
2138,100,0,0,287,1241,1019.47,3972,16.86,920,69.33,0.27,60,0,2017-03-12T22:54:06.000Z
2138,100,0,0,286,1254,1019.27,3972,16.87,920,69.24,0.27,60,28,2017-03-12T22:46:33.978Z
2135,100,0,0,285,1259,1019.16,3972,16.86,920,69.36,0.27,60,24,2017-03-12T22:38:57.468Z
2135,100,0,0,284,1255,1019.09,3977,16.87,920,69.36,0.27,60,28,2017-03-12T22:31:17.101Z
2144,100,0,0,283,1260,1018.95,3972,16.88,920,69.33,0.27,62,24,2017-03-12T22:23:43.254Z
2135,100,0,0,282,1247,1019.06,3972,16.89,920,69.27,0.27,54,-1,2017-03-12T22:16:05.456Z
2135,100,0,0,281,1251,1018.92,3977,16.89,920,69.17,0.27,56,24,2017-03-12T22:08:30.017Z
2135,100,0,0,280,1252,1018.77,3977,16.88,920,68.95,0.27,59,-1,2017-03-12T22:00:55.430Z
2135,100,0,0,279,1251,1018.6,3977,16.85,920,67.96,0.27,59,28,2017-03-12T21:53:18.301Z
2135,100,0,0,278,1248,1018.5,3977,16.73,920,66.89,0.27,56,7,2017-03-12T21:45:41.075Z
2135,100,0,0,277,1251,1018.52,3972,16.73,820,66.57,0.27,63,27,2017-03-12T21:38:04.764Z
2135,100,0,0,276,1255,1018.45,3977,16.77,820,66.64,0.27,56,28,2017-03-12T21:30:29.282Z
2135,100,0,0,275,1248,1018.3,3972,16.83,920,66.83,0.27,62,30,2017-03-12T21:22:58.391Z
2135,100,0,0,274,1248,1018.17,3977,16.86,920,67.18,0.27,55,-1,2017-03-12T21:15:17.137Z
2135,100,0,0,273,1240,1018.04,3972,16.94,920,67.59,0.27,51,5,2017-03-12T21:07:42.045Z
2135,100,2,0,272,1260,1018.01,3972,16.85,920,67.82,0.27,59,25,2017-03-12T21:00:04.561Z
2135,100,0,0,271,1240,1017.87,3977,16.69,820,67.02,0.27,60,-2,2017-03-12T20:52:29.527Z
2135,100,0,0,270,1262,1017.82,3977,16.7,820,66.83,0.27,60,28,2017-03-12T20:44:50.853Z
2135,100,0,0,269,1256,1017.75,3977,16.71,820,67.26,0.27,63,28,2017-03-12T20:37:15.488Z
2132,100,2,0,268,1251,1017.62,3972,16.61,920,66.27,0.27,60,28,2017-03-12T20:29:38.481Z
2141,100,0,0,267,1254,1017.51,3977,16.55,920,66.4,0.27,59,22,2017-03-12T20:22:06.300Z
2132,1000100,0,0,266,1248,1017.41,3972,16.56,820,66.8,0.27,54,28,2017-03-12T20:14:26.881Z
2132,100,0,0,264,1238,1017.17,3977,16.58,820,66.86,0.27,55,-1,2017-03-12T19:59:32.690Z
2138,10100,0,0,263,1271,1017.2,3977,16.58,820,66.8,0.27,59,30,2017-03-12T19:51:34.993Z
2132,100,0,0,262,1255,1016.93,3977,16.58,820,66.66,0.27,63,-1,2017-03-12T19:43:57.119Z
2132,10100,0,0,261,1254,1016.91,3977,16.57,820,65.92,0.27,57,32,2017-03-12T19:36:20.702Z
2135,100,0,0,260,1242,1016.65,3977,16.58,820,66.29,0.27,56,-7,2017-03-12T19:28:43.784Z
2132,100,0,0,259,1262,1016.6,3977,16.59,820,66.34,0.27,58,28,2017-03-12T19:21:13.980Z
2135,100,0,0,258,1255,1016.42,3977,16.62,820,66.59,0.27,51,25,2017-03-12T19:13:42.468Z
2138,100,0,0,257,1255,1016.22,3977,16.64,820,66.99,0.27,55,25,2017-03-12T19:05:53.365Z
2135,100,0,0,256,1244,1016.11,3977,16.63,820,66.72,0.27,62,11,2017-03-12T18:58:16.744Z
2135,100,0,0,254,1252,1015.82,3977,16.65,820,67.1,0.27,55,-1,2017-03-12T18:43:04.067Z
2135,100,0,0,253,1264,1015.59,3977,16.67,820,67.42,0.27,56,25,2017-03-12T18:35:36.748Z
2144,100,0,0,252,1243,1015.47,3977,16.68,920,67.42,0.27,56,-1,2017-03-12T18:27:50.707Z
2141,10100,0,0,251,1239,1015.44,3977,16.68,820,67.5,0.27,49,-2,2017-03-12T18:20:14.865Z
2135,100,0,0,250,1258,1015.13,3977,16.69,820,67.74,0.27,60,23,2017-03-12T18:12:39.167Z
2141,100,0,0,248,1255,1014.86,3977,16.68,820,67.93,0.27,60,30,2017-03-12T17:57:25.000Z
2144,100,0,0,247,1249,1014.63,3977,16.68,820,67.63,0.27,48,4,2017-03-12T17:49:53.873Z
2138,100,0,0,246,1246,1014.68,3977,16.68,820,67.63,0.27,54,-3,2017-03-12T17:42:11.776Z
2135,10100,0,0,245,1260,1014.5,3977,16.69,820,68.01,0.27,59,23,2017-03-12T17:34:35.305Z
2135,100,1,0,244,1246,1014.23,3977,16.69,820,67.93,0.27,58,3,2017-03-12T17:26:59.442Z
2135,100,0,0,243,1255,1014.2,3977,16.73,820,68.36,0.27,57,22,2017-03-12T17:19:22.330Z
2135,100,0,0,242,1252,1014.12,3977,16.72,820,68.25,0.27,60,-1,2017-03-12T17:11:47.594Z
2135,10100,0,0,241,1248,1013.89,3977,16.71,820,68.34,0.27,60,3,2017-03-12T17:04:10.236Z
2135,100,0,0,240,1255,1013.62,3977,16.74,820,68.55,0.27,59,25,2017-03-12T16:56:32.888Z
2138,100,0,0,239,1255,1013.5,3977,16.76,820,68.2,0.27,54,25,2017-03-12T16:48:56.114Z
2141,100,0,0,238,1254,1013.5,3977,16.72,820,67.9,0.27,59,4,2017-03-12T16:41:26.791Z
2135,1010100,0,0,237,1254,1013.36,3977,16.76,820,68.34,0.27,54,25,2017-03-12T16:33:43.240Z
2147,1000100,0,0,236,1251,1013.07,3977,16.77,820,68.12,0.27,55,3,2017-03-12T16:26:08.656Z
2135,100,0,0,234,1255,1012.92,3977,16.77,820,67.91,0.27,56,30,2017-03-12T16:10:54.727Z
2135,100,0,0,233,1255,1012.79,3977,16.76,820,68.18,0.27,57,31,2017-03-12T16:03:17.392Z
2141,100,0,0,231,1262,1012.62,3977,16.81,820,68.2,0.27,57,31,2017-03-12T15:48:04.548Z
2138,100,1,0,229,1267,1012.36,3977,16.83,920,67.91,0.27,54,28,2017-03-12T15:32:55.913Z
2141,100,1,0,228,1248,1012.4,3977,16.84,820,67.91,0.27,60,0,2017-03-12T15:25:15.748Z
2138,100,2,0,227,1252,1012.33,3977,16.86,920,68.04,0.27,56,28,2017-03-12T15:17:39.134Z
2135,100,1,0,226,1254,1012.19,3981,16.86,820,67.98,0.27,59,23,2017-03-12T15:10:03.164Z
2144,100,1,0,225,1256,1012.14,3977,16.86,820,67.66,0.27,57,30,2017-03-12T15:02:27.247Z
2144,100,1,0,224,1252,1012.05,3981,16.87,820,67.8,0.27,60,3,2017-03-12T14:54:50.570Z
2138,100,3,0,223,1248,1012.01,3981,16.97,820,68.61,0.27,51,7,2017-03-12T14:47:16.176Z
2138,100,2,0,222,1267,1012.1,3981,17.01,820,69.6,0.27,56,28,2017-03-12T14:39:39.333Z
2144,100,5,0,221,1244,1011.99,3977,16.96,820,69.12,0.27,64,27,2017-03-12T14:32:04.791Z
2144,100,10,0,220,1244,1011.95,3981,16.98,820,69.66,0.27,54,-4,2017-03-12T14:24:28.018Z
2138,100,7,0,219,1255,1011.81,3981,16.96,820,69.28,0.27,60,32,2017-03-12T14:16:51.473Z
2147,100,8,0,218,1260,1011.82,3981,16.98,820,68.85,0.27,64,35,2017-03-12T14:09:16.397Z
2141,100,8,0,217,1256,1011.75,3981,16.99,820,68.98,0.27,64,24,2017-03-12T14:01:41.300Z
2144,100,6,0,216,1248,1011.74,3981,16.99,820,69.25,0.27,54,3,2017-03-12T13:54:04.146Z
2144,1100,5,0,215,1252,1011.62,3977,17.05,820,70.22,0.27,60,26,2017-03-12T13:46:29.142Z
2141,1100,7,0,214,1242,1011.57,3981,17.05,820,70.3,0.27,51,3,2017-03-12T13:38:52.512Z
2141,1100,4,0,213,1251,1011.45,3981,17.06,820,70.2,0.27,56,32,2017-03-12T13:31:16.236Z
2150,100,3,0,212,1247,1011.27,3981,16.98,820,69.39,0.27,56,-5,2017-03-12T13:23:40.728Z
2141,100,4,0,211,1251,1011.08,3981,16.97,820,69.12,0.27,60,25,2017-03-12T13:16:06.852Z
2147,100,8,0,210,1255,1010.85,3981,17.01,820,69.82,0.27,60,-2,2017-03-12T13:08:29.176Z
2141,1100,5,0,208,1260,1010.56,3981,17.02,820,70.27,0.27,63,28,2017-03-12T12:53:17.907Z
2141,1100,6,0,207,1246,1010.53,3981,17.02,820,70.3,0.27,64,1,2017-03-12T12:45:42.540Z
2150,1100,5,0,206,1256,1010.57,3981,17.02,820,70.46,0.27,63,24,2017-03-12T12:38:08.195Z
2141,1100,6,0,205,1260,1010.48,3981,17.05,820,70.52,0.27,57,28,2017-03-12T12:30:36.158Z
2150,1100,7,0,204,1240,1010.49,3981,17.07,820,70.65,0.27,48,0,2017-03-12T12:22:55.159Z
2147,1100,11,0,203,1255,1010.36,3981,17.09,820,70.92,0.27,65,11,2017-03-12T12:15:20.863Z
2144,1100,4,0,202,1257,1010.34,3981,17.08,820,70.95,0.27,62,26,2017-03-12T12:07:46.715Z
2144,1100,4,0,201,1260,1010.2,3981,17.07,820,71.06,0.27,63,31,2017-03-12T12:00:08.793Z
2150,1000100,5,0,199,1254,1010.1,3981,16.93,820,68.47,0.27,57,-5,2017-03-12T11:44:59.546Z
2138,100,7,0,198,1240,1010.1,3981,16.94,820,68.05,0.27,56,6,2017-03-12T11:37:22.637Z
2141,100,3,0,197,1255,1010.08,3981,16.95,820,69.55,0.27,57,31,2017-03-12T11:29:46.693Z
2144,1100,7,0,195,1240,1009.93,3981,17,820,70.46,0.27,65,4,2017-03-12T11:14:34.438Z
2147,1100,4,0,194,1252,1009.96,3981,16.99,820,71.08,0.27,59,7,2017-03-12T11:06:59.633Z
2144,1100,8,0,193,1256,1009.77,3981,17.02,820,71.19,0.27,64,28,2017-03-12T10:59:21.957Z
2147,1100,4,0,192,1248,1009.63,3981,17.02,820,70.68,0.27,59,-8,2017-03-12T10:51:45.895Z
2144,1100,4,0,191,1252,1009.51,3981,17.01,820,70.7,0.27,63,30,2017-03-12T10:44:10.165Z
2144,1100,1,0,190,1248,1009.44,3981,17.03,820,71.38,0.27,56,1,2017-03-12T10:36:34.811Z
2144,1100,9,0,189,1256,1009.35,3981,17.07,820,71.68,0.27,64,24,2017-03-12T10:28:59.322Z
2144,1100,6,0,188,1240,1009.29,3981,17.03,820,71.59,0.27,56,-1,2017-03-12T10:21:24.110Z
2150,1100,2,0,187,1252,1009.23,3981,17.07,820,71.72,0.27,63,1,2017-03-12T10:13:53.362Z
2153,1100,5,0,186,1246,1009.27,3981,17.08,820,72.03,0.27,56,1,2017-03-12T10:06:12.561Z
2144,1001100,5,0,185,1248,1009.17,3985,17.1,820,72.3,0.27,62,0,2017-03-12T09:58:36.804Z
2156,1100,5,0,184,1240,1009.27,3985,17.1,820,72.21,0.27,55,-7,2017-03-12T09:51:01.511Z
2153,1100,5,0,183,1252,1009.19,3985,17.12,820,72.37,0.27,60,0,2017-03-12T09:43:25.958Z
2156,1100,3,0,182,1267,1009.2,3981,17.15,820,72.59,0.27,60,28,2017-03-12T09:35:54.873Z
2150,1100,6,0,181,1247,1009.09,3985,17.16,820,72.83,0.27,59,1,2017-03-12T09:28:20.377Z
2147,1100,5,0,180,1257,1009.07,3981,17.21,820,73.02,0.27,58,28,2017-03-12T09:20:39.702Z
2153,1100,2,0,177,1251,1008.95,3981,17.31,820,72.92,0.27,60,3,2017-03-12T08:57:58.615Z
2153,1100,1,0,176,1256,1008.84,3985,17.31,820,72.84,0.27,60,31,2017-03-12T08:50:25.908Z
2147,1100,4,0,175,1246,1008.98,3981,17.32,820,72.62,0.27,52,1,2017-03-12T08:42:44.105Z
2156,1100,0,0,174,1256,1008.91,3985,17.32,820,72.62,0.27,54,33,2017-03-12T08:35:09.299Z
2156,1100,2,0,173,1246,1008.95,3981,17.27,820,72.52,0.27,59,3,2017-03-12T08:27:40.945Z
2159,1100,6,0,172,1254,1009.02,3981,17.26,820,72.53,0.27,60,28,2017-03-12T08:19:58.730Z
2159,1001100,2,0,171,1244,1009.01,3985,17.24,820,72.56,0.27,54,3,2017-03-12T08:12:25.399Z
2147,1100,2,0,170,1246,1009,3985,17.25,820,72.53,0.27,60,6,2017-03-12T08:04:48.718Z
2150,1100,0,0,169,1256,1009,3985,17.26,820,72.7,0.27,57,30,2017-03-12T07:57:13.040Z
2150,1100,0,0,168,1254,1008.9,3985,17.25,820,72.7,0.27,56,25,2017-03-12T07:49:37.981Z
2153,1100,0,0,167,1247,1008.79,3985,17.25,820,72.72,0.27,56,3,2017-03-12T07:42:03.654Z
2147,1100,0,0,166,1256,1008.69,3985,17.26,820,72.78,0.27,60,31,2017-03-12T07:34:31.965Z
2153,1100,0,0,165,1242,1008.65,3985,17.27,820,72.78,0.27,54,3,2017-03-12T07:26:52.052Z
2147,1100,0,0,164,1270,1008.55,3985,17.28,820,72.81,0.27,57,32,2017-03-12T07:19:16.695Z
2150,1100,0,0,163,1248,1008.42,3985,17.3,820,72.78,0.27,60,31,2017-03-12T07:11:46.487Z
2150,1100,0,0,162,1260,1008.42,3985,17.31,820,72.75,0.27,56,31,2017-03-12T07:04:07.402Z
2150,1100,0,0,161,1262,1008.35,3985,17.32,820,72.81,0.27,57,35,2017-03-12T06:56:31.777Z
2147,1100,0,0,160,1257,1008.21,3985,17.33,820,72.75,0.27,63,-1,2017-03-12T06:48:56.557Z
2147,1100,0,0,159,1255,1008.12,3981,17.36,820,72.78,0.27,62,3,2017-03-12T06:41:22.167Z
2153,1100,0,0,158,1238,1008.07,3985,17.36,820,72.81,0.27,52,-1,2017-03-12T06:33:53.676Z
2150,1100,0,0,157,1265,1007.96,3985,17.33,820,72.87,0.27,63,35,2017-03-12T06:26:18.216Z
2153,1100,0,0,156,1248,1007.92,3985,17.36,820,72.92,0.27,47,3,2017-03-12T06:18:37.073Z
2150,1100,0,0,155,1248,1007.85,3985,17.36,820,72.94,0.27,57,3,2017-03-12T06:11:04.411Z
2150,1100,0,0,154,1247,1007.69,3990,17.36,820,72.92,0.27,60,0,2017-03-12T06:03:27.992Z
2147,1100,0,0,153,1251,1007.66,3985,17.37,820,72.81,0.27,55,4,2017-03-12T05:55:55.688Z
2150,1100,0,0,152,1256,1007.71,3985,17.38,820,72.97,0.27,59,35,2017-03-12T05:48:17.420Z
2150,1100,0,0,151,1251,1007.55,3990,17.39,820,72.97,0.27,65,28,2017-03-12T05:40:44.398Z
2153,1100,0,0,150,1256,1007.75,3985,17.41,820,73,0.27,60,27,2017-03-12T05:33:08.316Z
2150,1100,0,0,149,1256,1007.72,3985,17.43,820,73.14,0.27,63,28,2017-03-12T05:25:34.809Z
2162,1100,0,0,147,1246,1007.77,3985,17.43,920,73.17,0.27,51,4,2017-03-12T05:10:24.534Z
2156,1100,0,0,146,1251,1007.74,3985,17.45,820,73.2,0.27,60,3,2017-03-12T05:02:49.359Z
2150,1100,0,0,145,1262,1007.76,3985,17.46,820,73.3,0.27,60,28,2017-03-12T04:55:15.288Z
2153,1100,0,0,144,1244,1007.69,3985,17.47,820,73.36,0.27,57,3,2017-03-12T04:47:39.210Z
2153,1100,0,0,143,1260,1007.62,3985,17.47,820,73.41,0.27,63,28,2017-03-12T04:40:05.537Z
2156,1100,0,0,142,1240,1007.64,3985,17.48,920,73.38,0.27,48,7,2017-03-12T04:32:32.356Z
2153,1100,0,0,141,1244,1007.66,3985,17.51,820,73.46,0.27,60,3,2017-03-12T04:24:55.799Z
2153,1100,0,0,140,1239,1007.71,3985,17.5,820,73.46,0.27,55,3,2017-03-12T04:17:36.958Z
2159,1100,0,0,139,1254,1007.62,3985,17.51,820,73.43,0.27,62,4,2017-03-12T04:09:46.669Z
2162,1100,0,0,138,1243,1007.62,3985,17.52,820,73.46,0.27,51,-1,2017-03-12T04:02:13.051Z
2153,1100,0,0,137,1249,1007.64,3990,17.54,820,73.6,0.27,60,35,2017-03-12T03:54:38.589Z
2153,1100,0,0,136,1251,1007.6,3985,17.56,820,73.68,0.27,60,1,2017-03-12T03:47:04.132Z
2156,1100,0,0,135,1241,1007.67,3985,17.57,820,73.71,0.27,51,-1,2017-03-12T03:39:29.908Z
2153,1100,0,0,134,1255,1007.8,3985,17.58,820,73.76,0.27,67,31,2017-03-12T03:31:53.587Z
2153,1100,0,0,133,1246,1007.72,3990,17.59,820,73.78,0.27,55,1,2017-03-12T03:24:19.746Z
2156,1100,0,0,132,1263,1007.77,3985,17.6,820,73.87,0.27,63,28,2017-03-12T03:16:44.923Z
2153,1100,0,0,131,1246,1007.75,3990,17.61,820,73.9,0.27,51,1,2017-03-12T03:09:10.320Z
2159,1100,0,0,130,1248,1007.87,3990,17.62,820,73.9,0.27,60,-1,2017-03-12T03:01:37.784Z
2153,1100,0,0,129,1260,1007.84,3990,17.64,820,73.9,0.27,63,28,2017-03-12T02:54:01.364Z
2153,1100,0,0,128,1247,1007.95,3985,17.65,820,73.87,0.27,52,6,2017-03-12T02:46:27.947Z
2153,1100,0,0,127,1249,1007.93,3985,17.65,820,73.84,0.27,55,4,2017-03-12T02:38:53.006Z
2156,1100,0,0,126,1260,1007.92,3990,17.66,820,73.87,0.27,56,27,2017-03-12T02:31:18.446Z
2153,1100,0,0,125,1246,1007.95,3990,17.67,820,73.87,0.27,55,6,2017-03-12T02:23:45.259Z
2156,1100,0,0,124,1255,1007.96,3990,17.67,820,73.87,0.27,65,28,2017-03-12T02:16:09.848Z
2159,1100,0,0,122,1265,1008.05,3990,17.7,820,73.9,0.27,71,28,2017-03-12T02:01:04.162Z
2159,1100,0,0,121,1234,1008.08,3990,17.71,820,74.07,0.27,51,-1,2017-03-12T01:53:28.522Z
2159,1100,0,0,120,1252,1008.17,3985,17.73,820,74.14,0.27,57,-1,2017-03-12T01:45:55.472Z
2159,1100,0,0,119,1238,1008.26,3990,17.73,820,74.07,0.27,48,4,2017-03-12T01:38:20.761Z
2156,1001100,0,0,118,1260,1008.39,3990,17.74,820,74.28,0.27,63,31,2017-03-12T01:30:48.233Z
2167,1100,0,0,117,1244,1008.42,3990,17.76,820,74.39,0.27,55,0,2017-03-12T01:23:13.489Z
2159,1100,0,0,116,1248,1008.47,3990,17.77,820,74.42,0.27,56,3,2017-03-12T01:15:40.232Z
2156,1100,0,0,115,1243,1008.55,3990,17.79,820,74.55,0.27,54,7,2017-03-12T01:08:06.888Z
2165,1100,0,0,114,1254,1008.69,3990,17.8,820,74.61,0.27,60,32,2017-03-12T01:00:33.308Z
2159,1100,0,0,113,1244,1008.74,3990,17.82,820,74.71,0.27,48,8,2017-03-12T00:52:59.266Z
2162,1100,0,0,112,1241,1008.83,3990,17.82,820,74.85,0.27,48,0,2017-03-12T00:45:28.682Z
2167,1100,0,0,111,1244,1008.81,3990,17.84,820,74.96,0.27,49,5,2017-03-12T00:37:52.752Z
2159,1100,0,0,110,1246,1008.84,3990,17.85,820,75.12,0.27,56,0,2017-03-12T00:30:26.395Z
2167,1100,0,0,108,1251,1008.81,3990,17.87,820,75.44,0.27,44,6,2017-03-12T00:15:11.756Z
2165,1100,0,0,107,1248,1008.91,3990,17.88,820,75.63,0.27,57,6,2017-03-12T00:07:38.389Z
2162,1100,0,0,106,1264,1008.9,3990,17.88,820,75.82,0.27,62,36,2017-03-12T00:00:08.303Z
2165,1100,0,0,105,1246,1008.89,3990,17.89,820,76.12,0.27,56,3,2017-03-11T23:52:37.031Z
2165,1100,0,0,104,1260,1008.86,3985,17.88,820,76.47,0.27,56,28,2017-03-11T23:44:58.270Z
2165,1100,0,0,103,1243,1008.96,3990,17.86,820,76.79,0.27,54,3,2017-03-11T23:37:25.296Z
2165,1100,0,0,102,1249,1009,3990,17.8,820,76.95,0.27,56,3,2017-03-11T23:29:49.407Z
2165,1100,0,0,101,1248,1009.06,3990,17.8,820,77.25,0.27,62,6,2017-03-11T23:22:16.941Z
2167,1100,0,0,99,1242,1009.21,3990,17.69,820,78.05,0.27,60,3,2017-03-11T23:07:08.141Z
2162,1100,0,0,98,1254,1009.28,3985,17.57,820,75.86,0.27,59,3,2017-03-11T22:59:34.619Z
2170,1100,0,0,97,1246,1009.39,3990,17.59,820,76.18,0.27,56,4,2017-03-11T22:52:01.608Z
2162,1100,0,0,96,1239,1009.49,3990,17.61,820,76.65,0.27,51,6,2017-03-11T22:44:30.075Z
2162,1100,0,0,95,1254,1009.61,3990,17.64,820,77.29,0.27,60,31,2017-03-11T22:36:56.002Z
2162,1100,0,0,94,1262,1009.6,3990,17.65,820,78.4,0.27,62,30,2017-03-11T22:29:20.755Z
2162,1100,0,0,93,1243,1009.68,3990,17.5,820,75.48,0.27,49,0,2017-03-11T22:21:42.682Z
2159,1100,0,0,92,1240,1009.79,3990,17.48,820,75.4,0.27,54,0,2017-03-11T22:14:13.195Z
2159,1100,0,0,91,1247,1009.79,3994,17.5,820,75.61,0.27,54,3,2017-03-11T22:06:38.672Z
2165,1100,0,0,90,1248,1009.85,3990,17.52,820,75.89,0.27,56,1,2017-03-11T21:58:57.869Z
2165,1100,0,0,89,1236,1009.83,3994,17.54,820,76.21,0.27,46,3,2017-03-11T21:51:29.600Z
2170,1100,0,0,88,1255,1009.82,3990,17.55,820,76.58,0.27,56,6,2017-03-11T21:43:48.834Z
2165,1100,0,0,86,1246,1009.9,3994,17.59,820,77.88,0.27,60,6,2017-03-11T21:28:40.261Z
2165,1100,0,0,85,1260,1009.92,3990,17.53,820,77.39,0.27,64,31,2017-03-11T21:21:06.798Z
2170,1100,0,0,83,1252,1009.92,3990,17.5,820,77.67,0.27,63,3,2017-03-11T21:06:02.150Z
2162,1100,0,0,82,1265,1009.94,3990,17.5,820,78.58,0.27,59,30,2017-03-11T20:58:23.685Z
2156,1100,0,0,81,1248,1009.95,3990,17.43,820,77.04,0.27,62,-1,2017-03-11T20:50:55.068Z
2165,1001100,0,0,80,1244,1010.04,3994,17.41,820,77.17,0.27,57,-4,2017-03-11T20:43:14.892Z
2159,1001100,0,0,78,1247,1010.02,3994,17.29,820,76.55,0.27,59,3,2017-03-11T20:28:03.882Z
2147,1100,0,0,77,1241,1010.05,3994,17.21,820,75.23,0.27,49,-5,2017-03-11T20:20:30.468Z
2147,1100,0,0,76,1260,1010.09,3994,17.15,820,73.5,0.27,56,30,2017-03-11T20:12:54.302Z
2156,1100,0,0,74,1242,1010.35,3994,17.12,820,73.39,0.27,52,3,2017-03-11T19:57:42.304Z
2153,1100,0,0,73,1267,1010.43,3990,17.11,820,73.39,0.27,63,25,2017-03-11T19:50:06.948Z
2147,1100,0,0,72,1252,1010.52,3994,17.11,820,73.48,0.27,52,1,2017-03-11T19:42:31.962Z
2156,1100,0,0,71,1255,1010.58,3994,17.11,820,73.55,0.27,54,-2,2017-03-11T19:34:55.496Z
2153,1100,0,0,70,1243,1010.68,3994,17.11,820,73.61,0.27,56,-7,2017-03-11T19:27:20.308Z
2153,1100,0,0,69,1244,1010.68,3994,17.11,820,73.69,0.27,62,-2,2017-03-11T19:19:49.684Z
2150,1100,0,0,67,1248,1010.73,3994,17.11,820,73.85,0.27,60,-1,2017-03-11T19:04:34.137Z
2156,1100,0,0,66,1249,1010.8,3994,17.11,820,73.96,0.27,60,-1,2017-03-11T18:56:59.010Z
2156,1100,0,0,65,1244,1010.89,3994,17.11,820,74.12,0.27,55,6,2017-03-11T18:49:28.193Z
2150,1100,0,0,64,1246,1010.85,3994,17.11,820,74.15,0.27,54,1,2017-03-11T18:41:47.545Z
2150,1100,0,0,63,1262,1010.82,3994,17.11,820,74.17,0.27,63,27,2017-03-11T18:34:13.528Z
2150,1100,0,0,62,1243,1010.76,3994,17.1,920,74.15,0.27,56,7,2017-03-11T18:26:50.244Z
2156,1100,0,0,60,1244,1010.79,3994,17.09,820,74.31,0.27,51,1,2017-03-11T18:11:30.637Z
2156,1100,0,0,58,1248,1010.74,3994,17.09,820,74.47,0.27,57,-5,2017-03-11T17:56:20.396Z
2153,1100,0,0,57,1246,1010.72,3994,17.1,820,74.61,0.27,51,-8,2017-03-11T17:48:47.239Z
2153,1100,0,0,55,1244,1010.81,3994,17.11,820,74.9,0.27,55,-4,2017-03-11T17:33:32.953Z
2153,1100,0,0,54,1262,1010.8,3994,17.13,920,75.09,0.27,63,28,2017-03-11T17:25:57.679Z
2153,1100,0,0,53,1247,1010.77,3994,17.14,820,75.3,0.27,59,-7,2017-03-11T17:18:17.542Z
2159,1100,0,0,52,1252,1010.75,3994,17.16,820,75.6,0.27,65,-2,2017-03-11T17:10:41.966Z
2165,1100,0,0,51,1251,1010.77,3994,17.17,820,75.92,0.27,54,-1,2017-03-11T17:03:11.765Z
2159,1100,0,0,50,1252,1010.84,3994,17.2,820,76.49,0.27,56,3,2017-03-11T16:55:32.195Z
2159,1100,0,0,49,1246,1010.81,3999,17.22,820,77.24,0.27,56,3,2017-03-11T16:47:55.991Z
2159,1100,0,0,48,1262,1010.81,3994,17.16,820,76.81,0.27,56,27,2017-03-11T16:40:30.701Z
2153,1100,0,0,47,1241,1011.03,3994,17.12,820,75.84,0.27,55,3,2017-03-11T16:32:45.195Z
2150,1100,0,0,46,1252,1011.18,3999,17.1,820,75.23,0.27,57,4,2017-03-11T16:25:10.670Z
2156,1100,0,0,45,1242,1011.11,3994,17.11,920,75.3,0.27,56,6,2017-03-11T16:17:35.324Z
2153,1100,0,0,44,1248,1011.13,3999,17.11,920,75.68,0.27,59,-4,2017-03-11T16:09:58.594Z
2156,1100,0,0,43,1262,1011.18,3994,17.13,820,76.25,0.27,61,27,2017-03-11T16:02:22.973Z
2147,1100,0,0,42,1267,1011.07,3999,17.1,820,76.73,0.27,65,27,2017-03-11T15:54:52.856Z
2147,1100,0,0,41,1259,1011.12,3999,16.96,920,74.01,0.27,60,25,2017-03-11T15:47:12.989Z
2147,1100,1,0,40,1248,1011.19,3994,16.97,920,74.14,0.27,55,-1,2017-03-11T15:39:36.442Z
2147,1100,2,0,39,1240,1011.19,3999,16.98,920,74.23,0.27,52,4,2017-03-11T15:31:59.980Z
2150,1100,5,0,38,1255,1011.13,3999,16.99,920,74.28,0.27,60,24,2017-03-11T15:24:25.086Z
2150,1100,4,0,37,1246,1011.17,3994,17.01,920,74.39,0.27,56,3,2017-03-11T15:16:49.881Z
2150,1100,5,0,36,1246,1011.22,3994,17.02,920,74.44,0.27,52,0,2017-03-11T15:09:14.700Z
2150,1100,3,0,35,1260,1011.47,3994,17.03,920,74.55,0.27,60,25,2017-03-11T15:01:36.596Z
2153,1100,2,0,34,1255,1011.63,3994,17.06,920,74.68,0.27,63,24,2017-03-11T14:54:00.764Z
2150,1100,3,0,33,1260,1011.77,3994,17.09,920,74.74,0.27,62,-4,2017-03-11T14:46:25.383Z
2150,1100,1,0,32,1236,1011.92,3999,17.06,920,74.87,0.27,51,-4,2017-03-11T14:38:49.345Z
2150,1100,6,0,31,1255,1011.71,3999,17.07,920,74.81,0.27,60,25,2017-03-11T14:31:15.060Z
2150,1100,4,0,30,1244,1011.76,3994,17.09,820,74.87,0.27,54,-4,2017-03-11T14:23:37.847Z
2150,1100,2,0,29,1249,1011.98,3999,17.12,820,74.98,0.27,56,-2,2017-03-11T14:16:03.239Z
2150,1100,3,0,28,1262,1011.89,3994,17.11,820,74.98,0.27,60,30,2017-03-11T14:08:27.516Z
2150,1100,4,0,27,1251,1011.9,3999,17.1,820,74.96,0.27,60,-1,2017-03-11T14:00:51.665Z
2150,1100,3,0,26,1256,1011.94,3999,17.09,820,75.06,0.27,63,24,2017-03-11T13:53:16.743Z
2150,1100,4,0,24,1248,1012.09,3999,17.09,920,75.39,0.27,56,6,2017-03-11T13:38:05.114Z
2150,1100,4,0,23,1249,1012.18,3999,17.09,920,75.65,0.27,57,-1,2017-03-11T13:30:37.724Z
2153,1100,3,0,22,1254,1012.25,3999,17.08,920,76.09,0.27,51,-4,2017-03-11T13:22:53.899Z
2150,1100,5,0,20,1248,1012.22,3999,17.05,620,77.32,0.27,51,0,2017-03-11T13:07:49.724Z
2153,1100,4,0,19,1260,1012.35,3999,17.01,420,77.67,0.27,56,27,2017-03-11T13:00:08.213Z
2153,1100,3,0,17,1248,1012.52,3999,16.93,420,77.67,0.27,56,1,2017-03-11T12:44:55.896Z
2144,1100,4,0,16,1246,1012.54,3999,16.8,420,72.42,0.27,55,3,2017-03-11T12:37:19.912Z
2141,100,4,0,15,1249,1012.55,3999,16.74,420,69.3,0.27,56,30,2017-03-11T12:29:44.031Z
2135,100,4,0,14,1260,1012.7,3999,16.79,420,69.24,0.27,55,24,2017-03-11T12:22:07.490Z
2135,100,3,0,12,1248,1012.89,3999,16.91,420,69.2,0.27,49,27,2017-03-11T12:06:59.153Z
2141,100,4,0,11,1260,1012.86,3999,16.99,420,69.12,0.27,52,20,2017-03-11T11:59:23.774Z
2141,100,3,0,10,1235,1012.89,3999,17.13,520,68.88,0.27,48,-4,2017-03-11T11:51:44.205Z
2138,100,3,0,9,1248,1012.93,3999,17.32,520,68.66,0.27,57,27,2017-03-11T11:44:07.829Z
2138,100,2,0,8,1244,1012.91,3999,17.54,520,68.27,0.27,48,-4,2017-03-11T11:36:31.277Z
2141,100,2,0,7,1255,1013.05,3999,17.88,520,67.38,0.27,55,27,2017-03-11T11:28:59.264Z
2138,100100,4,0,6,1248,1012.89,3999,18.35,520,66.34,0.27,59,24,2017-03-11T11:21:24.895Z
2144,100100,999,0,5,1136,1013.06,4012,18.68,620,66.86,0.27,55,56,2017-03-11T11:13:52.660Z
2144,100100,999,1,4,1296,1013.11,4025,18.63,20,67.21,0.27,119,-91,2017-03-11T11:13:45.092Z
2144,100100,964,1,3,1288,1013.09,4007,18.59,620,67.12,0.27,108,-16,2017-03-11T11:13:30.631Z
2144,101100,974,1,2,1294,1013.07,4012,18.6,620,68.74,0.27,119,-125,2017-03-11T11:13:14.926Z
2144,101100,30,1,1,1319,1013.12,4012,18.63,320,74.28,0.27,22,-18,2017-03-11T11:12:58.763Z
2150,1111101,12,0,0,-36,1013.11,4016,18.8,20,72.39,0.27,-869,591,2017-03-11T11:12:20.706Z
2147,1111101,21,0,0,-108,1013.11,3959,18.27,920,69.33,0.27,-1048,96,2017-03-11T11:09:40.105Z
2141,1111101,0,0,0,1084,1015.83,3990,18.95,420,64.15,0.27,-144,-253,2017-03-10T23:54:54.872Z
2135,100,0,1,1,992,1015.82,4034,18.48,630,65.96,0.27,-89,-493,2017-03-10T23:54:25.452Z
2141,1111101,0,0,0,985,1015.8,4020,18.3,630,67.9,0.27,-98,-511,2017-03-10T23:54:12.338Z
2129,100,3,0,2268,1235,1018.11,4042,14.92,920,66.06,0.27,107,-173,2017-03-10T13:11:27.839Z
2129,100,3,0,2267,1223,1018.18,4042,14.9,30,66.03,0.27,108,-177,2017-03-10T13:03:46.401Z
2129,100,3,0,2266,1248,1018.36,4038,14.89,30,65.98,0.27,115,-161,2017-03-10T12:56:08.653Z
2126,100,4,0,2265,1256,1018.55,4038,14.89,30,66.09,0.27,103,-157,2017-03-10T12:48:26.340Z
2132,100,3,0,2264,1238,1018.6,4038,14.88,30,66.12,0.27,108,-177,2017-03-10T12:40:52.617Z
2124,100,3,0,2263,1248,1018.68,4042,14.87,30,65.98,0.27,113,-164,2017-03-10T12:33:04.687Z
2132,100,3,0,2262,1233,1018.75,4042,14.86,30,66.06,0.27,115,-182,2017-03-10T12:25:24.078Z
2124,100,3,0,2261,1256,1018.69,4042,14.86,30,65.98,0.27,112,-159,2017-03-10T12:17:44.597Z
2132,100,3,0,2260,1238,1018.79,4038,14.85,30,65.95,0.27,105,-176,2017-03-10T12:10:02.814Z
2132,100,3,0,2259,1248,1018.85,4042,14.84,30,65.95,0.27,110,-159,2017-03-10T12:02:23.471Z
2124,100,2,0,2258,1232,1018.97,4038,14.84,920,65.98,0.27,111,-175,2017-03-10T11:54:42.362Z
2124,100,3,0,2257,1246,1019.03,4042,14.83,30,66,0.27,116,-159,2017-03-10T11:47:07.347Z
2126,100,2,0,2256,1244,1018.99,4042,14.81,30,65.92,0.27,112,-162,2017-03-10T11:39:20.811Z
2126,100,3,0,2255,1231,1019.12,4042,14.81,920,65.98,0.27,108,-173,2017-03-10T11:31:40.859Z
2129,100,4,0,2254,1244,1019.22,4042,14.8,30,65.92,0.27,113,-156,2017-03-10T11:24:00.194Z
2129,100,3,0,2253,1252,1019.23,4042,14.78,30,65.92,0.27,111,-164,2017-03-10T11:16:21.520Z
2126,100,1,0,2252,1244,1019.23,4042,14.77,30,65.89,0.27,115,-161,2017-03-10T11:08:43.112Z
2124,100,1,0,2251,1238,1019.36,4042,14.77,30,65.87,0.27,115,-160,2017-03-10T11:00:56.951Z
2124,100,1,0,2249,1246,1019.48,4042,14.76,30,65.84,0.27,115,-162,2017-03-10T10:45:35.512Z
2129,100,1,0,2248,1231,1019.44,4042,14.75,30,65.79,0.27,107,-184,2017-03-10T10:37:54.698Z
2124,100,0,0,2247,1243,1019.5,4042,14.75,30,65.84,0.27,111,-161,2017-03-10T10:30:16.523Z
2124,100,0,0,2246,1240,1019.58,4042,14.75,30,65.87,0.27,112,-168,2017-03-10T10:22:32.263Z
2129,100,0,0,2245,1232,1019.6,4042,14.74,30,65.87,0.27,119,-177,2017-03-10T10:15:00.897Z
2132,100,0,0,2244,1255,1019.61,4047,14.74,30,65.84,0.27,112,-160,2017-03-10T10:07:12.656Z
2124,100,0,0,2243,1232,1019.66,4042,14.74,920,65.79,0.27,112,-180,2017-03-10T09:59:28.921Z
2124,100,0,0,2242,1250,1019.7,4042,14.73,30,65.73,0.27,110,-157,2017-03-10T09:51:50.227Z
2132,100,0,0,2241,1240,1019.92,4042,14.73,30,65.64,0.27,111,-177,2017-03-10T09:44:07.925Z
2129,100,1,0,2240,1244,1019.87,4042,14.72,30,65.71,0.27,118,-159,2017-03-10T09:36:28.123Z
2124,100,0,0,2239,1224,1019.93,4042,14.72,30,65.71,0.27,112,-180,2017-03-10T09:28:50.492Z
2124,100,0,0,2238,1236,1019.84,4042,14.71,30,65.69,0.27,115,-159,2017-03-10T09:21:04.197Z
2121,100,0,0,2237,1244,1019.9,4042,14.71,30,65.71,0.27,112,-160,2017-03-10T09:13:22.851Z
2124,100,0,0,2236,1244,1020.01,4042,14.72,30,65.71,0.27,108,-162,2017-03-10T09:05:44.532Z
2129,100,0,0,2235,1255,1019.91,4047,14.72,30,65.71,0.27,113,-157,2017-03-10T08:58:01.056Z
2124,100,0,0,2234,1240,1019.96,4047,14.72,30,65.73,0.27,108,-160,2017-03-10T08:50:19.124Z
2124,100,0,0,2233,1248,1019.9,4042,14.72,30,65.71,0.27,110,-160,2017-03-10T08:42:43.717Z
2129,100,0,0,2232,1240,1019.89,4042,14.72,30,65.66,0.27,115,-157,2017-03-10T08:35:07.117Z
2121,100,0,0,2231,1248,1019.84,4047,14.72,30,65.58,0.27,112,-160,2017-03-10T08:27:18.169Z
2124,100,0,0,2230,1248,1019.81,4042,14.72,30,65.66,0.27,110,-157,2017-03-10T08:19:34.992Z
2124,100,0,0,2229,1240,1019.84,4042,14.72,30,65.6,0.27,115,-162,2017-03-10T08:11:53.446Z
2121,100,0,0,2228,1232,1019.9,4042,14.72,920,65.58,0.27,109,-173,2017-03-10T08:04:12.376Z
2124,100,0,0,2226,1246,1019.79,4047,14.73,30,65.53,0.27,115,-159,2017-03-10T07:48:50.478Z
2126,100,0,0,2225,1234,1019.83,4042,14.73,920,65.53,0.27,112,-157,2017-03-10T07:41:10.318Z
2126,100,0,0,2224,1240,1019.88,4047,14.73,30,65.5,0.27,112,-159,2017-03-10T07:33:28.320Z
2126,100,0,0,2223,1244,1019.88,4047,14.74,30,65.53,0.27,112,-160,2017-03-10T07:25:51.879Z
2124,100,0,0,2222,1234,1019.91,4047,14.74,920,65.34,0.27,115,-176,2017-03-10T07:18:09.551Z
2132,1000100,0,0,2221,1249,1019.93,4047,14.74,30,65.34,0.27,118,-157,2017-03-10T07:10:26.202Z
2121,100,0,0,2220,1262,1019.97,4047,14.74,30,65.07,0.27,112,-162,2017-03-10T07:02:45.855Z
2121,100,0,0,2219,1238,1019.96,4047,14.75,30,64.62,0.27,113,-157,2017-03-10T06:55:04.544Z
2121,100,0,0,2218,1248,1019.99,4042,14.74,920,64.51,0.27,112,-162,2017-03-10T06:47:29.595Z
2124,100,0,0,2217,1246,1019.96,4047,14.72,920,64.51,0.27,115,-159,2017-03-10T06:39:43.144Z
2132,1000100,0,0,2216,1238,1019.99,4042,14.7,920,64.62,0.27,107,-177,2017-03-10T06:32:01.331Z
2121,100,0,0,2215,1248,1019.97,4047,14.65,30,64.8,0.27,108,-160,2017-03-10T06:24:19.985Z
2124,100,0,0,2214,1246,1019.9,4047,14.65,30,64.67,0.27,115,-165,2017-03-10T06:16:45.181Z
2121,100,0,0,2213,1244,1019.87,4047,14.65,30,64.7,0.27,111,-164,2017-03-10T06:08:57.863Z
2129,100,0,0,2212,1232,1019.85,4047,14.65,30,64.75,0.27,107,-177,2017-03-10T06:01:18.530Z
2126,100,0,0,2211,1247,1019.84,4047,14.64,30,64.64,0.27,111,-168,2017-03-10T05:53:40.370Z
2121,100,0,0,2209,1250,1019.83,4047,14.64,30,64.48,0.27,115,-162,2017-03-10T05:38:13.129Z
2121,100,0,0,2208,1246,1019.83,4047,14.64,30,64.43,0.27,111,-164,2017-03-10T05:30:34.465Z
2126,100,0,0,2207,1235,1019.65,4047,14.64,30,64.43,0.27,100,-176,2017-03-10T05:22:50.872Z
2126,100,0,0,2206,1239,1019.81,4047,14.64,30,64.41,0.27,112,-168,2017-03-10T05:15:16.922Z
2124,100,0,0,2205,1250,1019.87,4047,14.64,920,64.35,0.27,110,-162,2017-03-10T05:07:29.365Z
2126,100,0,0,2204,1244,1019.98,4047,14.64,30,64.35,0.27,115,-164,2017-03-10T04:59:47.827Z
2121,100,0,0,2203,1239,1020,4047,14.64,30,64.27,0.27,108,-182,2017-03-10T04:52:08.345Z
2124,100,0,0,2202,1240,1020.11,4047,14.64,920,64.19,0.27,111,-173,2017-03-10T04:44:25.760Z
2121,100,0,0,2201,1251,1020.23,4051,14.64,30,64.19,0.27,112,-160,2017-03-10T04:36:45.289Z
2124,100,0,0,2200,1228,1020.29,4047,14.64,30,64.16,0.27,115,-183,2017-03-10T04:29:03.852Z
2124,100,0,0,2199,1246,1020.31,4047,14.64,30,64.27,0.27,113,-157,2017-03-10T04:21:22.165Z
2121,100,0,0,2198,1246,1020.26,4047,14.64,920,64.19,0.27,115,-160,2017-03-10T04:13:43.724Z
2129,100,0,0,2197,1244,1020.37,4047,14.64,30,64.11,0.27,111,-164,2017-03-10T04:05:59.738Z
2124,100,0,0,2196,1240,1020.33,4047,14.64,30,64.14,0.27,110,-156,2017-03-10T03:58:18.953Z
2124,100,0,0,2195,1248,1020.38,4047,14.64,30,64.11,0.27,115,-160,2017-03-10T03:50:44.540Z
2129,100,0,0,2194,1246,1020.53,4047,14.64,30,64.03,0.27,116,-162,2017-03-10T03:42:55.279Z
2121,100,0,0,2193,1235,1020.54,4047,14.64,30,63.98,0.27,110,-154,2017-03-10T03:35:16.701Z
2126,100,0,0,2192,1240,1020.64,4047,14.64,30,63.78,0.27,107,-180,2017-03-10T03:27:33.064Z
2126,100,0,0,2190,1248,1020.84,4047,14.64,30,63.86,0.27,104,-162,2017-03-10T03:12:11.321Z
2126,100,0,0,2189,1230,1020.87,4047,14.64,920,63.83,0.27,108,-175,2017-03-10T03:04:29.360Z
2126,100,0,0,2188,1251,1020.78,4047,14.64,30,63.9,0.27,108,-161,2017-03-10T02:56:47.788Z
2126,100,0,0,2187,1240,1020.91,4047,14.64,30,63.86,0.27,111,-160,2017-03-10T02:49:07.356Z
2124,100,0,0,2186,1251,1020.98,4051,14.64,30,63.86,0.27,105,-160,2017-03-10T02:41:25.683Z
2121,100,0,0,2185,1242,1021.04,4047,14.64,30,63.8,0.27,116,-161,2017-03-10T02:33:44.208Z
2121,100,0,0,2184,1244,1021.11,4047,14.64,30,63.69,0.27,115,-157,2017-03-10T02:26:02.457Z
2124,100,0,0,2183,1246,1021.35,4051,14.64,920,63.78,0.27,111,-160,2017-03-10T02:18:21.772Z
2124,100,0,0,2180,1254,1021.51,4047,14.64,30,63.49,0.27,113,-157,2017-03-10T01:55:25.826Z
2124,100,0,0,2179,1251,1021.56,4047,14.64,30,63.35,0.27,112,-162,2017-03-10T01:47:37.768Z
2121,100,0,0,2178,1246,1021.78,4051,14.64,30,63.49,0.27,113,-165,2017-03-10T01:39:56.752Z
2129,100,0,0,2177,1248,1021.78,4051,14.64,30,63.44,0.27,108,-164,2017-03-10T01:32:19.669Z
2129,100,0,0,2176,1228,1021.76,4051,14.64,30,63.52,0.27,108,-183,2017-03-10T01:24:34.428Z
2124,100,0,0,2175,1238,1021.71,4051,14.64,30,63.55,0.27,107,-173,2017-03-10T01:16:53.467Z
2124,100,0,0,2174,1240,1021.79,4051,14.64,30,63.55,0.27,118,-162,2017-03-10T01:09:11.108Z
2121,100,0,0,2173,1239,1021.87,4051,14.64,30,63.44,0.27,107,-160,2017-03-10T01:01:30.004Z
2121,100,0,0,2172,1246,1021.95,4051,14.64,30,63.52,0.27,104,-160,2017-03-10T00:53:52.476Z
2121,100,0,0,2171,1240,1022.01,4051,14.64,920,63.52,0.27,108,-176,2017-03-10T00:46:08.919Z
2124,100,0,0,2170,1240,1022.09,4051,14.65,30,63.47,0.27,115,-162,2017-03-10T00:38:31.936Z
2126,100,0,0,2169,1246,1022.13,4051,14.65,30,63.38,0.27,116,-164,2017-03-10T00:30:47.194Z
2121,100,0,0,2168,1244,1022.15,4051,14.65,920,63.29,0.27,108,-161,2017-03-10T00:23:04.829Z
2124,100,0,0,2167,1231,1022.24,4051,14.65,30,63.26,0.27,113,-180,2017-03-10T00:15:24.446Z
2121,100,0,0,2166,1240,1022.34,4051,14.65,30,63.12,0.27,116,-157,2017-03-10T00:07:47.721Z
2121,100,0,0,2165,1238,1022.18,4051,14.65,30,63.12,0.27,112,-157,2017-03-10T00:00:26.932Z
2126,100,0,0,2164,1248,1022.14,4051,14.65,30,63.12,0.27,108,-159,2017-03-09T23:52:19.975Z
2124,100,0,0,2163,1246,1021.95,4051,14.65,30,63.18,0.27,115,-166,2017-03-09T23:44:43.530Z
2126,100,0,0,2162,1235,1021.9,4051,14.65,30,63.23,0.27,112,-177,2017-03-09T23:36:57.772Z
2124,100,0,0,2161,1242,1021.92,4051,14.65,30,63.23,0.27,110,-175,2017-03-09T23:29:21.204Z
2121,100,0,0,2160,1242,1021.95,4051,14.65,30,63.12,0.27,115,-160,2017-03-09T23:21:36.051Z
2121,100,0,0,2159,1238,1021.89,4051,14.65,30,63.06,0.27,112,-161,2017-03-09T23:13:54.415Z
2124,100,0,0,2158,1248,1021.9,4051,14.65,30,63.12,0.27,116,-157,2017-03-09T23:06:14.000Z
2124,100,0,0,2157,1228,1021.78,4051,14.65,30,62.92,0.27,103,-176,2017-03-09T22:58:34.240Z
2121,100,0,0,2156,1251,1021.73,4051,14.65,30,62.67,0.27,118,-164,2017-03-09T22:50:51.511Z
2121,100,0,0,2155,1248,1021.63,4051,14.65,30,62.67,0.27,111,-161,2017-03-09T22:43:10.658Z
2121,100,0,0,2154,1232,1021.57,4051,14.65,30,62.58,0.27,112,-160,2017-03-09T22:35:30.642Z
2121,100,0,0,2153,1240,1021.5,4051,14.65,30,62.61,0.27,108,-161,2017-03-09T22:27:50.274Z
2129,100,0,0,2152,1246,1021.5,4051,14.65,30,62.8,0.27,110,-164,2017-03-09T22:20:13.613Z
2124,100,0,0,2151,1243,1021.35,4051,14.67,30,62.92,0.27,112,-154,2017-03-09T22:12:28.636Z
2126,100,0,0,2150,1240,1021.28,4051,14.65,30,62.72,0.27,112,-159,2017-03-09T22:04:47.181Z
2121,100,0,0,2149,1255,1021.12,4051,14.67,30,62.72,0.27,118,-168,2017-03-09T21:57:04.874Z
2124,100,0,0,2148,1248,1021.18,4056,14.67,920,62.64,0.27,108,-163,2017-03-09T21:49:24.103Z
2124,100,0,0,2147,1242,1021.23,4051,14.67,30,62.38,0.27,115,-165,2017-03-09T21:41:43.048Z
2124,100,0,0,2146,1236,1021.19,4051,14.69,30,62.32,0.27,112,-177,2017-03-09T21:34:03.450Z
2121,100,0,0,2145,1248,1021.43,4051,14.7,30,62.07,0.27,108,-160,2017-03-09T21:26:28.090Z
2121,100,0,0,2143,1248,1021.29,4056,14.7,30,62.52,0.27,108,-160,2017-03-09T21:11:06.216Z
2121,100,0,0,2142,1235,1021.36,4056,14.7,30,62.52,0.27,111,-161,2017-03-09T21:03:20.874Z
2121,10100,0,0,2140,1232,1021.24,4056,14.65,30,62.29,0.27,112,-178,2017-03-09T20:47:59.042Z
2126,100,0,0,2139,1252,1021.51,4056,14.65,30,62.19,0.27,113,-160,2017-03-09T20:40:18.519Z
2121,100,0,0,2138,1240,1021.54,4056,14.65,30,61.93,0.27,114,-164,2017-03-09T20:32:40.073Z
2126,100,0,0,2137,1225,1021.52,4051,14.64,920,62.21,0.27,108,-181,2017-03-09T20:25:00.847Z
2129,100,0,0,2135,1240,1021.29,4056,14.64,30,61.76,0.27,111,-163,2017-03-09T20:09:33.448Z
2121,100,0,0,2134,1231,1021.3,4056,14.64,30,61.7,0.27,111,-181,2017-03-09T20:01:52.761Z
2124,100,0,0,2133,1246,1021.43,4056,14.64,30,62.04,0.27,110,-162,2017-03-09T19:54:12.444Z
2124,100,0,0,2132,1224,1021.64,4051,14.64,30,61.93,0.27,113,-178,2017-03-09T19:46:32.270Z
2124,100,0,0,2131,1248,1021.44,4056,14.64,920,61.81,0.27,112,-162,2017-03-09T19:38:52.167Z
2121,100,0,0,2130,1240,1021.3,4056,14.64,30,61.9,0.27,110,-159,2017-03-09T19:31:08.964Z
2121,100,0,0,2129,1251,1021.13,4056,14.64,30,61.7,0.27,115,-162,2017-03-09T19:23:27.575Z
2118,10100,0,0,2127,1246,1020.83,4056,14.64,30,61.78,0.27,111,-167,2017-03-09T19:08:09.432Z
2124,100,0,0,2126,1244,1021.14,4056,14.64,30,61.76,0.27,113,-167,2017-03-09T19:00:23.704Z
2126,100,0,0,2125,1240,1020.96,4056,14.64,30,61.61,0.27,108,-159,2017-03-09T18:52:54.928Z
2121,100,0,0,2124,1246,1020.79,4056,14.64,30,61.73,0.27,112,-172,2017-03-09T18:45:02.944Z
2121,100,0,0,2123,1239,1020.7,4056,14.64,30,61.53,0.27,108,-176,2017-03-09T18:37:20.644Z
2121,10100,0,0,2122,1231,1020.62,4056,14.64,920,61.02,0.27,107,-164,2017-03-09T18:29:40.069Z
2124,100,0,0,2121,1255,1020.36,4056,14.64,30,61.39,0.27,108,-164,2017-03-09T18:21:59.148Z
2121,100,0,0,2120,1225,1020.38,4056,14.64,30,61.33,0.27,107,-181,2017-03-09T18:14:30.594Z
2121,100,0,0,2119,1254,1020.4,4056,14.64,30,61.02,0.27,111,-162,2017-03-09T18:06:57.309Z
2124,100,0,0,2118,1236,1020.23,4056,14.64,30,61.1,0.27,116,-161,2017-03-09T17:58:56.402Z
2124,100,0,0,2117,1246,1020.36,4056,14.64,30,60.65,0.27,115,-160,2017-03-09T17:51:20.342Z
2118,100,0,0,2116,1254,1020.45,4060,14.64,30,60.34,0.27,107,-157,2017-03-09T17:43:35.199Z
2121,100,0,0,2115,1240,1020.27,4056,14.64,30,60.31,0.27,112,-168,2017-03-09T17:36:00.256Z
2121,100,0,0,2114,1244,1020.49,4051,14.64,920,60.31,0.27,115,-159,2017-03-09T17:28:19.499Z
2126,100,0,0,2112,1231,1020.01,4060,14.64,30,60.05,0.27,111,-177,2017-03-09T17:12:51.153Z
2124,100,0,0,2110,1244,1020.11,4060,14.64,920,59.94,0.27,112,-160,2017-03-09T16:57:29.975Z
2124,100,0,0,2109,1246,1019.95,4056,14.64,30,59.94,0.27,118,-167,2017-03-09T16:49:51.048Z
2124,100,0,0,2108,1246,1019.81,4060,14.64,30,59.91,0.27,103,-164,2017-03-09T16:42:08.469Z
2121,100,0,0,2107,1243,1019.92,4056,14.64,30,59.88,0.27,115,-160,2017-03-09T16:34:29.270Z
2129,100,0,0,2106,1240,1019.75,4056,14.64,30,60.11,0.27,99,-172,2017-03-09T16:26:52.653Z
2121,100,0,0,2105,1228,1019.58,4056,14.64,920,59.8,0.27,112,-177,2017-03-09T16:19:07.285Z
2124,100,0,0,2104,1249,1019.55,4056,14.64,30,60.13,0.27,112,-160,2017-03-09T16:11:31.838Z
2121,100,0,0,2103,1244,1019.34,4056,14.64,920,59.88,0.27,112,-164,2017-03-09T16:03:44.640Z
2124,100,0,0,2102,1235,1019.42,4056,14.64,30,59.94,0.27,116,-180,2017-03-09T15:56:04.150Z
2126,100,0,0,2101,1251,1019.43,4056,14.64,30,60.02,0.27,111,-161,2017-03-09T15:48:24.705Z
2129,100,0,0,2100,1233,1019.34,4060,14.64,30,59.91,0.27,115,-177,2017-03-09T15:40:43.822Z
2121,100,0,0,2099,1248,1019.14,4060,14.64,30,59.6,0.27,112,-160,2017-03-09T15:33:07.046Z
2126,100,0,0,2097,1236,1018.94,4060,14.64,30,60.23,0.27,100,-180,2017-03-09T15:17:45.859Z
2121,100,0,0,2096,1254,1019.04,4056,14.64,30,60.13,0.27,115,-161,2017-03-09T15:09:59.129Z
2121,100,1,0,2095,1246,1018.87,4060,14.64,30,60.28,0.27,115,-160,2017-03-09T15:02:18.373Z
2129,100,0,0,2094,1240,1018.91,4056,14.64,30,60.79,0.27,107,-175,2017-03-09T14:54:37.983Z
2124,10100,2,0,2093,1254,1018.76,4060,14.64,920,61.05,0.27,115,-160,2017-03-09T14:46:57.340Z
2126,100,1,0,2092,1248,1018.42,4060,14.64,920,59.68,0.27,115,-162,2017-03-09T14:39:20.773Z
2121,100,1,0,2091,1248,1018.32,4060,14.64,30,59.94,0.27,110,-160,2017-03-09T14:31:34.636Z
2121,100,2,0,2090,1251,1018.13,4060,14.64,30,59.94,0.27,115,-165,2017-03-09T14:23:54.044Z
2126,100,2,0,2089,1225,1018.21,4060,14.64,30,60.11,0.27,112,-183,2017-03-09T14:16:13.279Z
2121,100,2,0,2088,1241,1018.1,4060,14.63,30,59.71,0.27,116,-165,2017-03-09T14:08:32.935Z
2124,100,1,0,2087,1254,1017.91,4060,14.63,30,60.16,0.27,103,-162,2017-03-09T14:00:49.866Z
2124,100,2,0,2086,1228,1017.98,4060,14.63,30,59.97,0.27,103,-178,2017-03-09T13:53:07.773Z
2124,100,2,0,2085,1248,1017.88,4060,14.63,920,60.36,0.27,119,-157,2017-03-09T13:45:26.798Z
2121,100,2,0,2084,1254,1017.76,4060,14.63,920,60.25,0.27,112,-161,2017-03-09T13:37:45.246Z
2124,100,1,0,2083,1220,1017.84,4060,14.63,30,60.94,0.27,102,-177,2017-03-09T13:30:10.209Z
2121,100,0,0,2082,1240,1017.85,4060,14.64,30,61.16,0.27,107,-160,2017-03-09T13:22:24.814Z
2121,100,1,0,2081,1248,1017.84,4060,14.63,30,61.02,0.27,110,-164,2017-03-09T13:14:40.359Z
2124,100,1,0,2080,1240,1017.75,4060,14.62,30,60.82,0.27,105,-175,2017-03-09T13:07:00.570Z
2124,100,1,0,2079,1255,1017.63,4060,14.63,30,60.96,0.27,103,-164,2017-03-09T12:59:23.138Z
2121,100,1,0,2077,1248,1017.35,4060,14.63,30,60.87,0.27,108,-167,2017-03-09T12:44:00.529Z
2121,100,2,0,2076,1246,1017.17,4060,14.64,30,61.36,0.27,112,-159,2017-03-09T12:36:13.578Z
2121,100,0,0,2075,1251,1017.3,4060,14.64,30,61.02,0.27,113,-162,2017-03-09T12:28:32.587Z
2124,100,0,0,2074,1251,1017.29,4060,14.64,920,61.16,0.27,110,-154,2017-03-09T12:21:01.210Z
2124,100,0,0,2073,1240,1017.14,4064,14.64,30,61.76,0.27,112,-160,2017-03-09T12:13:09.173Z
2121,100,1,0,2072,1235,1017.37,4060,14.64,30,61.5,0.27,111,-164,2017-03-09T12:05:29.860Z
2129,100,1,0,2071,1249,1017.4,4060,14.64,30,62.04,0.27,111,-160,2017-03-09T11:57:49.386Z
2121,100,1,0,2070,1235,1017.42,4064,14.64,30,62.35,0.27,112,-177,2017-03-09T11:50:06.961Z
2129,10100,1,0,2068,1223,1017.24,4060,14.64,30,62.1,0.27,103,-176,2017-03-09T11:34:46.107Z
2126,100,3,0,2067,1248,1016.98,4060,14.64,30,62.13,0.27,112,-165,2017-03-09T11:27:02.867Z
2124,100,6,0,2066,1248,1016.79,4060,14.64,30,62.21,0.27,110,-162,2017-03-09T11:19:19.811Z
2124,100,1,0,2063,1251,1016.66,4060,14.64,30,62.47,0.27,105,-165,2017-03-09T10:56:16.912Z
2126,10100,1,0,2062,1240,1016.42,4060,14.64,30,62.32,0.27,112,-160,2017-03-09T10:48:40.332Z
2124,100,2,0,2061,1236,1016.14,4060,14.64,30,62.38,0.27,107,-177,2017-03-09T10:40:53.615Z
2121,100,1,0,2060,1231,1016.08,4064,14.64,30,62.38,0.27,108,-178,2017-03-09T10:33:12.718Z
2124,100,1,0,2059,1248,1015.89,4060,14.64,30,62.38,0.27,104,-153,2017-03-09T10:25:32.176Z
2124,100,3,0,2058,1244,1015.78,4060,14.64,30,62.84,0.27,113,-164,2017-03-09T10:17:56.280Z
2121,100,1,0,2057,1248,1015.76,4064,14.64,30,62.84,0.27,119,-164,2017-03-09T10:10:10.859Z
2124,100,0,0,2056,1240,1015.56,4060,14.64,30,62.95,0.27,112,-161,2017-03-09T10:02:32.490Z
2121,100,0,0,2055,1235,1015.35,4064,14.64,30,62.84,0.27,113,-159,2017-03-09T09:54:44.746Z
2124,100,1,0,2054,1258,1015.11,4060,14.64,30,63.12,0.27,103,-159,2017-03-09T09:47:09.061Z
2126,100,2,0,2052,1230,1014.95,4064,14.64,30,63.35,0.27,102,-172,2017-03-09T09:31:41.386Z
2121,100,2,0,2051,1239,1014.76,4064,14.64,30,63.61,0.27,112,-162,2017-03-09T09:24:02.985Z
2121,100,0,0,2049,1247,1014.37,4064,14.64,30,64.09,0.27,112,-165,2017-03-09T09:08:37.815Z
2126,10100,0,0,2048,1248,1014.42,4064,14.64,920,63.95,0.27,113,-160,2017-03-09T09:01:05.794Z
2124,100,0,0,2047,1254,1014.09,4064,14.64,30,64.03,0.27,110,-160,2017-03-09T08:53:16.207Z
2129,100,1,0,2046,1231,1014.04,4064,14.64,920,64.3,0.27,112,-177,2017-03-09T08:45:42.100Z
2124,100,0,0,2045,1246,1013.9,4064,14.64,30,64.51,0.27,110,-157,2017-03-09T08:37:57.220Z
2124,100,0,0,2044,1248,1013.7,4064,14.64,30,64.64,0.27,112,-160,2017-03-09T08:30:14.091Z
2129,100,0,0,2043,1238,1013.53,4064,14.64,920,64.8,0.27,115,-178,2017-03-09T08:22:40.354Z
2126,100,0,0,2042,1244,1013.41,4064,14.64,30,64.83,0.27,112,-159,2017-03-09T08:14:48.153Z
2124,10100,1,0,2041,1240,1013.37,4064,14.64,30,65.15,0.27,112,-162,2017-03-09T08:07:08.394Z
2126,100,0,0,2040,1244,1013.05,4064,14.64,920,65.15,0.27,108,-163,2017-03-09T07:59:33.319Z
2124,100,0,0,2039,1235,1012.85,4069,14.64,30,65.36,0.27,103,-173,2017-03-09T07:51:45.289Z
2124,100,0,0,2038,1244,1012.77,4064,14.64,30,65.6,0.27,118,-160,2017-03-09T07:44:09.639Z
2126,100,0,0,2037,1238,1012.62,4064,14.64,30,65.71,0.27,113,-162,2017-03-09T07:36:30.024Z
2124,100,0,0,2036,1244,1012.44,4069,14.64,920,65.5,0.27,112,-156,2017-03-09T07:28:46.667Z
2129,100,0,0,2034,1240,1012.22,4064,14.64,920,65.71,0.27,111,-162,2017-03-09T07:13:18.439Z
2126,100,0,0,2033,1235,1012,4064,14.64,30,65.66,0.27,103,-173,2017-03-09T07:05:43.240Z
2124,100,0,0,2032,1240,1011.89,4064,14.64,30,65.71,0.27,108,-173,2017-03-09T06:57:56.446Z
2126,100,0,0,2031,1244,1011.71,4064,14.64,30,65.79,0.27,108,-160,2017-03-09T06:50:17.773Z
2132,100,0,0,2030,1236,1011.62,4064,14.64,30,65.82,0.27,115,-161,2017-03-09T06:42:34.819Z
2124,100,0,0,2029,1244,1011.47,4064,14.64,30,65.82,0.27,110,-162,2017-03-09T06:34:51.192Z
2124,100,0,0,2028,1248,1011.3,4064,14.64,920,65.92,0.27,115,-159,2017-03-09T06:27:10.806Z
2124,100,0,0,2026,1231,1010.99,4064,14.64,30,65.82,0.27,108,-178,2017-03-09T06:11:47.226Z
2129,100,0,0,2025,1231,1010.76,4069,14.64,30,65.84,0.27,115,-176,2017-03-09T06:04:11.083Z
2129,100,0,0,2024,1252,1010.55,4064,14.64,30,65.79,0.27,113,-164,2017-03-09T05:56:25.110Z
2129,100,0,0,2023,1231,1010.41,4064,14.64,30,65.76,0.27,116,-177,2017-03-09T05:48:44.018Z
2135,1000100,0,0,2022,1244,1010.19,4056,14.64,920,65.73,0.27,116,-162,2017-03-09T05:41:06.744Z
2124,100,0,0,2021,1240,1010.13,4069,14.64,920,65.66,0.27,112,-158,2017-03-09T05:33:21.593Z
2126,100,0,0,2020,1240,1009.98,4069,14.64,30,65.55,0.27,115,-162,2017-03-09T05:25:38.220Z
2124,100,0,0,2019,1230,1009.93,4069,14.64,30,65.52,0.27,110,-183,2017-03-09T05:17:58.280Z
2124,100,0,0,2018,1255,1010,4064,14.64,30,65.47,0.27,115,-157,2017-03-09T05:10:27.340Z
2124,100,0,0,2017,1238,1009.85,4069,14.64,30,65.41,0.27,113,-173,2017-03-09T05:02:44.980Z
2129,100,0,0,2016,1239,1009.76,4069,14.64,920,65.36,0.27,115,-176,2017-03-09T04:54:53.177Z
2129,100,0,0,2015,1246,1009.81,4069,14.64,30,65.31,0.27,112,-159,2017-03-09T04:47:12.165Z
2132,100,0,0,2013,1248,1009.62,4069,14.64,920,65.25,0.27,112,-161,2017-03-09T04:31:53.912Z
2126,100,0,0,2012,1235,1009.62,4069,14.64,30,65.23,0.27,112,-180,2017-03-09T04:24:13.858Z
2126,100,0,0,2011,1235,1009.59,4069,14.64,30,65.23,0.27,111,-177,2017-03-09T04:16:27.080Z
2126,100,0,0,2010,1249,1009.56,4069,14.64,30,65.15,0.27,113,-161,2017-03-09T04:08:50.144Z
2124,100,0,0,2009,1246,1009.56,4064,14.64,30,65.2,0.27,110,-161,2017-03-09T04:01:05.592Z
2124,100,0,0,2008,1246,1009.42,4069,14.64,30,65.15,0.27,110,-157,2017-03-09T03:53:23.427Z
2124,100,0,0,2006,1249,1009.34,4069,14.64,30,65.09,0.27,118,-159,2017-03-09T03:37:59.559Z
2129,100,0,0,2004,1248,1009.31,4069,14.64,30,65.07,0.27,118,-160,2017-03-09T03:22:37.806Z
2129,100,0,0,2003,1248,1009.38,4069,14.64,920,64.99,0.27,111,-160,2017-03-09T03:14:55.331Z
2132,100,0,0,2002,1248,1009.45,4073,14.64,30,64.99,0.27,108,-165,2017-03-09T03:07:20.317Z
2124,100,0,0,2001,1248,1009.33,4069,14.64,30,65.09,0.27,112,-165,2017-03-09T02:59:32.902Z
2124,100,0,0,2000,1248,1009.44,4069,14.64,30,65.04,0.27,105,-156,2017-03-09T02:51:51.676Z
2132,100,0,0,1999,1226,1009.55,4069,14.64,920,65.02,0.27,108,-180,2017-03-09T02:44:16.699Z
2124,100,0,0,1998,1248,1009.5,4069,14.64,30,64.99,0.27,111,-156,2017-03-09T02:36:29.210Z
2132,1000100,0,0,1997,1232,1009.5,4069,14.64,30,65.02,0.27,104,-176,2017-03-09T02:28:55.281Z
2121,100,0,0,1996,1233,1009.38,4069,14.64,30,65.07,0.27,112,-159,2017-03-09T02:21:07.814Z
2124,100,0,0,1995,1246,1009.46,4069,14.64,30,65.02,0.27,112,-162,2017-03-09T02:13:26.170Z
2129,100,0,0,1993,1248,1009.71,4069,14.64,30,64.96,0.27,111,-157,2017-03-09T01:58:03.100Z
2132,100,0,0,1992,1242,1009.57,4069,14.64,920,64.93,0.27,115,-168,2017-03-09T01:50:24.171Z
2129,100,0,0,1991,1248,1009.49,4069,14.64,920,64.91,0.27,112,-161,2017-03-09T01:42:41.126Z
2126,100,0,0,1990,1239,1009.55,4073,14.64,30,64.93,0.27,112,-177,2017-03-09T01:35:00.328Z
2129,100,0,0,1989,1252,1009.5,4069,14.64,30,64.93,0.27,112,-160,2017-03-09T01:27:18.719Z
2129,100,0,0,1988,1240,1009.65,4069,14.64,920,64.86,0.27,108,-177,2017-03-09T01:19:40.402Z
2129,100,0,0,1987,1250,1009.84,4069,14.64,30,64.88,0.27,106,-159,2017-03-09T01:12:02.832Z
2124,100,0,0,1986,1248,1009.88,4069,14.64,30,64.86,0.27,113,-160,2017-03-09T01:04:20.707Z
2129,100,0,0,1985,1247,1009.81,4069,14.64,920,64.88,0.27,112,-157,2017-03-09T00:56:33.312Z
2124,100,0,0,1984,1238,1009.84,4069,14.64,30,64.83,0.27,112,-156,2017-03-09T00:48:52.315Z
2126,100,0,0,1983,1244,1009.79,4069,14.64,30,64.83,0.27,116,-161,2017-03-09T00:41:11.710Z
2132,100,0,0,1982,1246,1009.61,4073,14.64,30,64.88,0.27,112,-157,2017-03-09T00:33:30.633Z
2129,100,0,0,1980,1234,1009.83,4073,14.64,30,64.91,0.27,105,-175,2017-03-09T00:18:11.816Z
2124,100,0,0,1979,1252,1009.78,4073,14.64,920,64.88,0.27,112,-157,2017-03-09T00:10:26.173Z
2121,100,0,0,1978,1244,1009.76,4073,14.64,30,64.83,0.27,108,-161,2017-03-09T00:02:50.650Z
2124,100,0,0,1976,1244,1009.63,4073,14.64,30,64.91,0.27,112,-160,2017-03-08T23:47:23.752Z
2129,100,0,0,1975,1235,1009.53,4073,14.64,30,64.83,0.27,112,-177,2017-03-08T23:39:42.506Z
2132,100,0,0,1974,1251,1009.67,4073,14.64,30,64.88,0.27,115,-157,2017-03-08T23:32:06.325Z
2124,100,0,0,1973,1252,1009.59,4073,14.64,920,64.93,0.27,113,-164,2017-03-08T23:24:23.295Z
2126,100,0,0,1972,1244,1009.44,4073,14.64,30,64.91,0.27,112,-160,2017-03-08T23:16:38.922Z
2129,100,0,0,1971,1232,1009.47,4073,14.64,30,64.99,0.27,110,-177,2017-03-08T23:08:55.936Z
2124,100,0,0,1970,1248,1009.3,4073,14.64,920,64.99,0.27,115,-165,2017-03-08T23:01:22.305Z
2124,100,0,0,1969,1240,1009.52,4073,14.64,30,65.09,0.27,108,-157,2017-03-08T22:53:36.791Z
2126,100,0,0,1968,1246,1009.51,4073,14.65,30,65.15,0.27,110,-157,2017-03-08T22:45:56.957Z
2126,100,0,0,1967,1240,1009.57,4073,14.65,30,65.34,0.27,108,-175,2017-03-08T22:38:13.927Z
2124,100,0,0,1965,1240,1009.53,4073,14.65,920,65.26,0.27,115,-165,2017-03-08T22:22:48.874Z
2124,100,0,0,1964,1236,1009.56,4073,14.65,30,65.34,0.27,107,-176,2017-03-08T22:15:14.133Z
2124,100,0,0,1963,1248,1009.45,4073,14.65,920,65.34,0.27,115,-162,2017-03-08T22:07:32.712Z
2124,100,0,0,1962,1240,1009.33,4078,14.65,30,65.34,0.27,111,-160,2017-03-08T21:59:47.834Z
2124,100,0,0,1961,1235,1009.39,4073,14.65,30,65.28,0.27,111,-180,2017-03-08T21:52:11.997Z
2124,100,0,0,1960,1241,1009.54,4073,14.65,30,65.37,0.27,113,-159,2017-03-08T21:44:23.480Z
2124,100,0,0,1959,1243,1009.5,4073,14.65,30,65.28,0.27,115,-162,2017-03-08T21:36:41.081Z
2129,10100,0,0,1958,1232,1009.44,4073,14.65,920,65.39,0.27,112,-178,2017-03-08T21:29:04.993Z
2126,100,0,0,1957,1249,1009.17,4073,14.65,30,65.34,0.27,111,-157,2017-03-08T21:21:18.793Z
2126,100,0,0,1956,1243,1009.18,4073,14.67,30,65.28,0.27,112,-160,2017-03-08T21:13:37.244Z
2124,100,0,0,1954,1248,1009.29,4078,14.65,920,65.34,0.27,115,-157,2017-03-08T20:58:16.137Z
2126,100,0,0,1953,1251,1009.33,4073,14.65,30,65.07,0.27,109,-164,2017-03-08T20:50:35.464Z
2129,100,0,0,1952,1248,1009.4,4073,14.65,30,65.15,0.27,112,-160,2017-03-08T20:42:53.415Z
2126,100,0,0,1951,1239,1009.27,4078,14.64,30,64.8,0.27,112,-164,2017-03-08T20:35:11.580Z
2132,100,0,0,1950,1242,1009.28,4073,14.64,30,64.64,0.27,112,-185,2017-03-08T20:27:31.230Z
2124,100,0,0,1949,1251,1009.34,4078,14.64,920,64.59,0.27,113,-162,2017-03-08T20:19:55.957Z
2129,100,0,0,1948,1228,1009.3,4078,14.64,30,64.51,0.27,107,-176,2017-03-08T20:12:09.057Z
2132,1000100,0,0,1947,1250,1009.32,4073,14.64,920,64.54,0.27,112,-162,2017-03-08T20:04:33.831Z
2121,100,0,0,1946,1246,1009.48,4078,14.64,30,64.62,0.27,113,-162,2017-03-08T19:56:47.980Z
2124,100,0,0,1945,1255,1009.4,4073,14.63,30,64.32,0.27,112,-164,2017-03-08T19:49:04.417Z
2126,100,0,0,1944,1231,1009.27,4078,14.63,30,64.32,0.27,103,-175,2017-03-08T19:41:33.017Z
2121,100,0,0,1943,1246,1009.18,4078,14.63,30,64.11,0.27,110,-161,2017-03-08T19:33:44.362Z
2129,100,0,0,1941,1225,1008.92,4078,14.61,30,63.8,0.27,110,-173,2017-03-08T19:18:19.381Z
2126,100,0,0,1939,1248,1009.02,4078,14.61,30,63.8,0.27,118,-164,2017-03-08T19:02:58.841Z
2121,100,0,0,1938,1252,1008.95,4078,14.61,30,63.61,0.27,108,-161,2017-03-08T18:55:26.225Z
2121,100,0,0,1937,1242,1008.84,4078,14.61,30,63.47,0.27,112,-160,2017-03-08T18:47:34.097Z
2124,100,0,0,1936,1230,1008.93,4078,14.61,30,63.49,0.27,108,-183,2017-03-08T18:39:52.692Z
2132,1000100,0,0,1935,1255,1009.08,4078,14.62,920,63.69,0.27,113,-157,2017-03-08T18:32:11.830Z
2121,100,0,0,1934,1251,1009,4078,14.61,30,63.49,0.27,111,-161,2017-03-08T18:24:29.810Z
2124,100,0,0,1933,1240,1009.07,4078,14.61,30,63.21,0.27,108,-161,2017-03-08T18:16:48.711Z
2129,100,0,0,1932,1246,1008.93,4078,14.6,30,62.95,0.27,112,-160,2017-03-08T18:09:07.453Z
2124,100,0,0,1931,1242,1008.85,4078,14.6,920,62.61,0.27,110,-167,2017-03-08T18:01:27.289Z
2129,100,0,0,1930,1223,1008.85,4078,14.6,30,62.44,0.27,112,-181,2017-03-08T17:53:44.613Z
2129,100,0,0,1929,1252,1008.64,4078,14.6,30,62.35,0.27,112,-157,2017-03-08T17:46:03.623Z
2126,100,0,0,1928,1251,1008.68,4078,14.6,30,62.44,0.27,112,-161,2017-03-08T17:38:28.737Z
2129,100,0,0,1927,1232,1008.64,4078,14.59,30,62.04,0.27,108,-173,2017-03-08T17:30:42.070Z
2121,100,0,0,1926,1251,1008.47,4078,14.59,30,62.01,0.27,112,-152,2017-03-08T17:22:59.795Z
2121,100,0,0,1925,1250,1008.42,4078,14.6,920,62.24,0.27,115,-160,2017-03-08T17:15:20.672Z
2126,100,0,0,1923,1246,1008.41,4078,14.61,920,61.96,0.27,115,-160,2017-03-08T16:59:55.888Z
2121,100,0,0,1922,1249,1008.19,4078,14.61,30,61.78,0.27,112,-160,2017-03-08T16:52:15.174Z
2124,100,0,0,1920,1251,1008.11,4078,14.62,30,62.19,0.27,112,-159,2017-03-08T16:36:52.153Z
2124,100,0,0,1919,1235,1008.06,4078,14.61,920,62.16,0.27,103,-178,2017-03-08T16:29:09.761Z
2121,100,0,0,1918,1244,1007.93,4082,14.61,920,61.78,0.27,112,-160,2017-03-08T16:21:30.506Z
2124,100,0,0,1917,1242,1007.99,4082,14.61,30,62.04,0.27,108,-159,2017-03-08T16:13:47.491Z
2124,100,0,0,1916,1246,1007.93,4078,14.61,30,62.07,0.27,112,-160,2017-03-08T16:06:06.813Z
2129,100,0,0,1915,1254,1007.92,4082,14.6,920,61.93,0.27,115,-161,2017-03-08T15:58:25.269Z
2126,100,0,0,1914,1246,1007.88,4082,14.6,30,61.99,0.27,108,-160,2017-03-08T15:50:44.184Z
2121,100,0,0,1913,1242,1007.91,4082,14.61,30,62.04,0.27,107,-165,2017-03-08T15:43:12.348Z
2129,100,0,0,1911,1238,1007.78,4078,14.6,30,60.74,0.27,102,-168,2017-03-08T15:27:40.333Z
2129,100,0,0,1910,1246,1007.68,4082,14.63,30,61.36,0.27,108,-162,2017-03-08T15:19:59.105Z
2121,100,0,0,1909,1241,1007.62,4082,14.63,30,61.33,0.27,108,-161,2017-03-08T15:12:17.307Z
2124,100,0,0,1908,1235,1007.38,4082,14.63,30,61.05,0.27,108,-176,2017-03-08T15:04:41.321Z
2129,100,1,0,1907,1228,1007.54,4082,14.64,30,61.73,0.27,108,-177,2017-03-08T14:56:59.692Z
2124,100,1,0,1906,1246,1007.42,4082,14.63,30,61.56,0.27,111,-168,2017-03-08T14:49:14.611Z
2121,100,1,0,1905,1226,1007.26,4082,14.63,920,61.5,0.27,105,-177,2017-03-08T14:41:33.207Z
2124,100,0,0,1904,1231,1007.47,4082,14.64,30,62.72,0.27,112,-173,2017-03-08T14:33:51.210Z
2124,100,0,0,1903,1239,1007.35,4082,14.64,30,62.58,0.27,106,-177,2017-03-08T14:26:10.525Z
2126,100,0,0,1902,1243,1007.21,4082,14.64,30,62.84,0.27,111,-168,2017-03-08T14:18:30.576Z
2124,100,1,0,1901,1243,1007.11,4082,14.64,30,62.93,0.27,110,-164,2017-03-08T14:10:47.095Z
2129,100,0,0,1900,1230,1007.24,4082,14.64,30,63.09,0.27,110,-178,2017-03-08T14:03:06.234Z
2129,100,2,0,1899,1240,1007.29,4082,14.64,30,64,0.27,112,-164,2017-03-08T13:55:25.578Z
2124,100,2,0,1898,1243,1007.3,4082,14.63,30,63.38,0.27,112,-164,2017-03-08T13:47:43.265Z
2124,100,2,0,1897,1219,1007.39,4082,14.61,30,63.35,0.27,108,-176,2017-03-08T13:40:12.204Z
2124,100,2,0,1896,1248,1007.3,4082,14.63,30,63.98,0.27,111,-162,2017-03-08T13:32:21.260Z
2132,100,1,0,1895,1250,1007.52,4082,14.61,920,64.19,0.27,108,-157,2017-03-08T13:24:39.121Z
2126,100,0,0,1894,1238,1007.62,4082,14.62,30,64.75,0.27,112,-160,2017-03-08T13:16:58.103Z
2126,100,1,0,1892,1240,1007.56,4082,14.63,30,65.25,0.27,112,-172,2017-03-08T13:01:34.350Z
2124,100,0,0,1891,1240,1007.46,4086,14.63,920,65.55,0.27,112,-159,2017-03-08T12:53:53.141Z
2126,100,3,0,1890,1251,1007.43,4082,14.63,30,65.63,0.27,115,-160,2017-03-08T12:46:11.993Z
2132,100,4,0,1889,1233,1007.25,4086,14.63,30,66.11,0.27,112,-176,2017-03-08T12:38:31.111Z
2135,100,2,0,1888,1251,1007.27,4082,14.64,30,66.05,0.27,110,-157,2017-03-08T12:30:49.798Z
2132,100,2,0,1887,1231,1007.14,4086,14.63,30,66.11,0.27,113,-177,2017-03-08T12:23:13.148Z
2129,100,1,0,1886,1248,1006.96,4082,14.64,30,66.54,0.27,115,-157,2017-03-08T12:15:28.986Z
2129,100,1,0,1884,1254,1006.77,4086,14.64,30,66.57,0.27,111,-159,2017-03-08T12:00:05.860Z
2129,100,2,0,1883,1228,1006.52,4086,14.64,30,66.78,0.27,112,-173,2017-03-08T11:52:24.125Z
2126,100,3,0,1882,1254,1006.73,4086,14.64,30,66.91,0.27,116,-162,2017-03-08T11:44:43.141Z
2129,100,4,0,1881,1239,1006.51,4086,14.64,30,67.02,0.27,107,-177,2017-03-08T11:37:00.644Z
2126,100,4,0,1880,1246,1006.44,4086,14.64,920,67.31,0.27,118,-154,2017-03-08T11:29:19.856Z
2129,10100,3,0,1879,1247,1006.27,4082,14.64,30,67.55,0.27,112,-159,2017-03-08T11:21:39.288Z
2132,100,2,0,1878,1230,1006.01,4086,14.64,920,67.71,0.27,110,-180,2017-03-08T11:13:57.702Z
2132,100,3,0,1876,1240,1005.81,4086,14.64,30,67.66,0.27,96,-175,2017-03-08T10:58:35.063Z
2129,10100,2,0,1874,1249,1005.73,4086,14.64,30,67.82,0.27,113,-160,2017-03-08T10:43:17.840Z
2135,100,1,0,1873,1251,1005.46,4086,14.64,920,68,0.27,111,-164,2017-03-08T10:35:30.498Z
2129,100,1,0,1872,1228,1005.57,4086,14.64,30,68.11,0.27,112,-176,2017-03-08T10:27:49.905Z
2135,100,1,0,1871,1240,1005.75,4086,14.64,30,68.21,0.27,112,-170,2017-03-08T10:20:10.678Z
2129,10100,2,0,1870,1244,1005.69,4086,14.64,30,68.4,0.27,110,-160,2017-03-08T10:12:27.721Z
2129,100,2,0,1869,1235,1005.41,4086,14.64,30,68.59,0.27,115,-161,2017-03-08T10:04:45.698Z
2126,1000100,3,0,1868,1251,1005.3,4086,14.64,920,68.78,0.27,114,-160,2017-03-08T09:57:06.352Z
2138,100,2,0,1867,1233,1005.07,4078,14.64,30,69.1,0.27,111,-180,2017-03-08T09:49:33.758Z
2129,100,2,0,1866,1250,1005.01,4086,14.64,30,69.25,0.27,116,-164,2017-03-08T09:41:42.885Z
2126,100,2,0,1865,1230,1004.99,4086,14.64,920,69.44,0.27,112,-171,2017-03-08T09:34:01.171Z
2129,100,3,0,1864,1235,1005.18,4086,14.64,920,69.55,0.27,115,-180,2017-03-08T09:26:19.923Z
2126,100,2,0,1863,1256,1004.95,4086,14.64,920,69.73,0.27,113,-156,2017-03-08T09:18:43.983Z
2129,1100,0,0,1862,1244,1004.8,4091,14.64,920,70.03,0.27,115,-157,2017-03-08T09:10:57.445Z
2126,1100,0,0,1861,1242,1004.75,4086,14.64,30,70.16,0.27,112,-162,2017-03-08T09:03:16.673Z
2129,1100,0,0,1860,1246,1004.66,4086,14.64,30,70.32,0.27,115,-162,2017-03-08T08:55:35.504Z
2129,11100,1,0,1859,1231,1004.49,4091,14.64,30,70.46,0.27,113,-186,2017-03-08T08:47:54.536Z
2135,1100,0,0,1858,1248,1004.77,4091,14.64,30,70.48,0.27,113,-157,2017-03-08T08:40:15.161Z
2132,1100,0,0,1857,1243,1004.92,4091,14.65,920,70.78,0.27,115,-160,2017-03-08T08:32:32.897Z
2132,1100,0,0,1856,1234,1005.01,4091,14.65,30,71.34,0.27,108,-178,2017-03-08T08:24:51.959Z
2132,1100,0,0,1855,1231,1004.95,4086,14.65,920,71.5,0.27,110,-173,2017-03-08T08:17:11.917Z
2129,1100,0,0,1854,1244,1005.08,4086,14.65,30,71.79,0.27,116,-160,2017-03-08T08:09:35.395Z
2129,1100,0,0,1853,1240,1005,4086,14.65,30,71.26,0.27,115,-160,2017-03-08T08:01:51.073Z
2138,1100,0,0,1852,1240,1004.99,4086,14.67,920,71.23,0.27,118,-177,2017-03-08T07:54:08.236Z
2129,1100,0,0,1851,1240,1004.95,4091,14.7,920,72.11,0.27,120,-160,2017-03-08T07:46:28.712Z
2129,1100,0,0,1850,1247,1004.71,4082,14.73,920,72.43,0.27,116,-157,2017-03-08T07:38:48.309Z
2126,1011100,0,0,1849,1242,1004.49,4086,14.74,30,71.36,0.27,112,-160,2017-03-08T07:31:05.571Z
2138,1100,0,0,1848,1233,1004.13,4091,14.73,30,72.41,0.27,113,-173,2017-03-08T07:23:35.773Z
2129,100,0,0,1846,1246,1003.79,4091,14.64,30,67.79,0.27,112,-164,2017-03-08T07:08:04.462Z
2126,100,0,0,1844,1241,1003.72,4091,14.62,30,67.63,0.27,113,-160,2017-03-08T06:52:46.155Z
2126,100,0,0,1843,1225,1003.55,4091,14.59,30,67.84,0.27,107,-173,2017-03-08T06:45:01.975Z
2132,100,0,0,1842,1228,1003.47,4091,14.6,30,68.03,0.27,113,-180,2017-03-08T06:37:19.837Z
2132,100,0,0,1841,1244,1003.35,4091,14.6,30,68.27,0.27,112,-164,2017-03-08T06:29:37.072Z
2129,100,0,0,1840,1251,1003.28,4091,14.6,30,68.35,0.27,112,-165,2017-03-08T06:21:56.173Z
2126,100,0,0,1839,1240,1003.22,4091,14.6,920,68.35,0.27,112,-164,2017-03-08T06:14:25.231Z
2126,10100,0,0,1838,1243,1003.15,4091,14.61,920,68.3,0.27,115,-168,2017-03-08T06:06:34.848Z
2124,10100,0,0,1837,1255,1002.81,4095,14.6,30,68.43,0.27,115,-160,2017-03-08T05:58:52.086Z
2129,100,0,0,1836,1248,1002.55,4091,14.6,920,68.16,0.27,115,-158,2017-03-08T05:51:10.550Z
2126,100,0,0,1835,1231,1002.38,4095,14.6,30,68.14,0.27,111,-180,2017-03-08T05:43:29.351Z
2132,100,0,0,1834,1248,1002.15,4091,14.59,30,68.62,0.27,115,-161,2017-03-08T05:35:47.981Z
2126,100,0,0,1833,1232,1002.19,4086,14.59,30,68.3,0.27,111,-181,2017-03-08T05:28:06.398Z
2132,100,0,0,1831,1248,1002.08,4095,14.6,30,67.89,0.27,112,-162,2017-03-08T05:12:49.969Z
2126,100,0,0,1830,1251,1002,4095,14.61,30,67.5,0.27,111,-164,2017-03-08T05:05:04.652Z
2126,100,0,0,1829,1231,1002.02,4095,14.6,30,67.57,0.27,110,-178,2017-03-08T04:57:31.451Z
2126,100,0,0,1828,1252,1001.93,4095,14.6,30,67.34,0.27,111,-153,2017-03-08T04:49:46.090Z
2132,100,0,0,1827,1244,1001.73,4095,14.59,30,67.39,0.27,112,-165,2017-03-08T04:41:59.187Z
2129,10100,0,0,1826,1247,1001.5,4095,14.59,30,67.44,0.27,115,-164,2017-03-08T04:34:17.231Z
2129,100,0,0,1825,1231,1001.19,4091,14.58,30,67.37,0.27,107,-176,2017-03-08T04:26:35.684Z
2124,100,0,0,1824,1238,1001.15,4095,14.58,920,67.34,0.27,107,-165,2017-03-08T04:19:00.706Z
2126,100,0,0,1823,1240,1001.13,4095,14.58,30,67.23,0.27,111,-159,2017-03-08T04:11:12.995Z
2129,100,0,0,1822,1250,1001.01,4095,14.58,30,67.18,0.27,110,-162,2017-03-08T04:03:31.640Z
2129,100,0,0,1821,1235,1001.02,4091,14.58,30,66.99,0.27,103,-172,2017-03-08T03:55:52.520Z
2129,100,0,0,1820,1233,1001.19,4095,14.58,920,67.05,0.27,115,-162,2017-03-08T03:48:09.716Z
2135,100,0,0,1819,1232,1001.09,4095,14.57,30,66.91,0.27,113,-170,2017-03-08T03:40:34.982Z
2126,100,0,0,1816,1228,1001.05,4095,14.57,30,66.8,0.27,111,-185,2017-03-08T03:17:24.074Z
2126,100,0,0,1815,1254,1001.23,4095,14.57,30,66.73,0.27,110,-160,2017-03-08T03:09:41.782Z
2132,100,0,0,1814,1244,1001.17,4095,14.56,30,66.7,0.27,112,-159,2017-03-08T03:02:05.404Z
2124,100,0,0,1813,1244,1001.29,4095,14.57,30,66.67,0.27,115,-160,2017-03-08T02:54:19.115Z
2126,100,0,0,1811,1244,1001.5,4095,14.57,30,66.57,0.27,115,-160,2017-03-08T02:38:57.707Z
2126,100,0,0,1810,1246,1001.55,4095,14.57,920,66.46,0.27,115,-162,2017-03-08T02:31:15.908Z
2126,100,0,0,1809,1244,1001.78,4095,14.56,30,66.41,0.27,112,-160,2017-03-08T02:23:33.682Z
2124,100,0,0,1808,1247,1001.72,4095,14.57,30,66.32,0.27,112,-164,2017-03-08T02:15:55.549Z
2124,100,0,0,1807,1240,1001.85,4095,14.57,30,66.3,0.27,115,-160,2017-03-08T02:08:12.190Z
2132,100,0,0,1806,1251,1001.92,4095,14.57,30,66.25,0.27,112,-160,2017-03-08T02:00:34.883Z
2129,100,0,0,1805,1232,1001.87,4095,14.57,30,66.14,0.27,104,-168,2017-03-08T01:52:52.398Z
2124,100,0,0,1804,1244,1001.72,4095,14.57,30,66.05,0.27,110,-164,2017-03-08T01:45:09.573Z
2126,100,0,0,1803,1246,1001.93,4095,14.58,30,66,0.27,113,-157,2017-03-08T01:37:26.660Z
2124,100,0,0,1802,1252,1001.95,4095,14.58,30,65.92,0.27,112,-164,2017-03-08T01:29:44.726Z
2126,100,0,0,1801,1240,1002.05,4100,14.58,30,65.84,0.27,108,-157,2017-03-08T01:22:04.799Z
2126,100,0,0,1800,1236,1002.01,4100,14.59,30,65.82,0.27,118,-173,2017-03-08T01:14:23.458Z
2124,100,0,0,1799,1248,1002.18,4095,14.59,920,65.73,0.27,119,-164,2017-03-08T01:06:41.343Z
2126,100,0,0,1798,1247,1002.26,4100,14.59,30,65.68,0.27,112,-159,2017-03-08T00:58:59.448Z
2126,10100,0,0,1797,1240,1002.42,4095,14.6,30,65.63,0.27,112,-157,2017-03-08T00:51:19.923Z
2135,10100,0,0,1796,1254,1002.79,4095,14.6,30,65.57,0.27,113,-159,2017-03-08T00:43:42.366Z
2126,100,0,0,1795,1231,1003.05,4100,14.6,920,65.55,0.27,103,-180,2017-03-08T00:35:57.001Z
2126,10100,0,0,1794,1240,1003.14,4095,14.61,30,65.41,0.27,113,-162,2017-03-08T00:28:15.634Z
2124,100,0,0,1793,1244,1003.45,4100,14.61,920,65.44,0.27,112,-160,2017-03-08T00:20:35.477Z
2129,10100,0,0,1792,1236,1003.67,4100,14.6,30,65.47,0.27,110,-180,2017-03-08T00:12:51.836Z
2126,100,0,0,1791,1235,1004.05,4100,14.62,920,65.34,0.27,104,-180,2017-03-08T00:05:14.384Z
2126,10100,0,0,1790,1238,1004.15,4100,14.62,30,65.31,0.27,113,-167,2017-03-07T23:57:34.502Z
2124,100,0,0,1789,1251,1004.52,4100,14.63,30,65.34,0.27,112,-162,2017-03-07T23:49:48.699Z
2124,10100,0,0,1788,1246,1004.56,4100,14.63,920,65.25,0.27,110,-161,2017-03-07T23:42:08.034Z
2129,100,0,0,1787,1244,1004.93,4100,14.63,30,65.07,0.27,113,-154,2017-03-07T23:34:25.422Z
2126,100,0,0,1786,1251,1005.09,4100,14.63,30,65.07,0.27,108,-162,2017-03-07T23:26:47.494Z
2129,100,0,0,1785,1238,1005.25,4100,14.63,30,64.93,0.27,112,-180,2017-03-07T23:19:02.951Z
2126,100,0,0,1784,1240,1005.47,4100,14.63,30,64.99,0.27,112,-160,2017-03-07T23:11:21.305Z
2126,100,0,0,1783,1248,1005.49,4100,14.63,30,64.83,0.27,113,-159,2017-03-07T23:03:40.637Z
2129,100,0,0,1782,1246,1005.46,4104,14.64,30,64.64,0.27,112,-159,2017-03-07T22:56:02.490Z
2124,100,0,0,1781,1243,1005.66,4100,14.64,920,64.67,0.27,113,-160,2017-03-07T22:48:17.743Z
2126,100,0,0,1780,1246,1005.78,4104,14.64,30,64.62,0.27,113,-157,2017-03-07T22:40:38.385Z
2129,10100,0,0,1779,1249,1005.93,4100,14.64,30,64.59,0.27,115,-160,2017-03-07T22:33:01.163Z
2126,100,0,0,1778,1238,1006.25,4100,14.64,30,64.54,0.27,113,-162,2017-03-07T22:25:14.862Z
2124,100,0,0,1777,1256,1006.42,4104,14.64,30,64.48,0.27,116,-156,2017-03-07T22:17:38.674Z
2124,100,0,0,1776,1250,1006.57,4104,14.64,30,64.57,0.27,113,-163,2017-03-07T22:09:57.883Z
2129,100,0,0,1775,1247,1006.72,4100,14.64,30,64.83,0.27,108,-164,2017-03-07T22:02:11.360Z
2129,100,0,0,1774,1231,1006.81,4104,14.64,30,64.83,0.27,114,-177,2017-03-07T21:54:31.180Z
2129,100,0,0,1773,1236,1006.73,4100,14.64,30,65.12,0.27,108,-176,2017-03-07T21:46:51.396Z
2124,100,0,0,1772,1257,1006.88,4100,14.64,30,65.18,0.27,115,-164,2017-03-07T21:39:07.433Z
2124,100,0,0,1771,1233,1007.13,4104,14.64,30,65.23,0.27,108,-173,2017-03-07T21:31:26.420Z
2124,100,0,0,1770,1248,1007.22,4104,14.64,920,65.36,0.27,105,-159,2017-03-07T21:23:49.327Z
2126,100,0,0,1769,1244,1007.24,4100,14.64,30,65.39,0.27,118,-157,2017-03-07T21:16:04.011Z
2129,100,0,0,1768,1231,1007.3,4104,14.64,30,65.63,0.27,115,-172,2017-03-07T21:08:23.668Z
2126,100,0,0,1766,1243,1007.67,4104,14.64,30,66,0.27,113,-157,2017-03-07T20:53:00.487Z
2124,100,0,0,1765,1238,1007.78,4104,14.64,30,66,0.27,113,-164,2017-03-07T20:45:20.332Z
2124,100,0,0,1764,1238,1008.02,4100,14.64,30,66.16,0.27,111,-159,2017-03-07T20:37:39.271Z
2124,10100,0,0,1761,1254,1008.8,4104,14.64,920,66.19,0.27,112,-157,2017-03-07T20:14:36.509Z
2129,100,0,0,1760,1251,1009.07,4104,14.64,30,65.92,0.27,110,-157,2017-03-07T20:06:59.263Z
2132,100,0,0,1759,1236,1009.3,4104,14.63,920,65.15,0.27,99,-172,2017-03-07T19:59:12.863Z
2124,100,0,0,1758,1231,1009.19,4104,14.59,920,64.83,0.27,112,-177,2017-03-07T19:51:32.871Z
2121,100,0,0,1757,1248,1009.05,4104,14.57,30,64.46,0.27,108,-162,2017-03-07T19:43:50.874Z
2126,100,0,0,1756,1236,1009.08,4104,14.55,30,64.22,0.27,112,-160,2017-03-07T19:36:11.585Z
2124,100,0,0,1755,1248,1009.05,4104,14.52,30,63.9,0.27,115,-157,2017-03-07T19:28:28.274Z
2129,100,0,0,1754,1239,1009.03,4104,14.51,30,63.35,0.27,112,-160,2017-03-07T19:20:55.427Z
2124,100,0,0,1753,1244,1009.25,4104,14.52,30,63.41,0.27,108,-157,2017-03-07T19:13:13.666Z
2126,10100,0,0,1752,1240,1009.45,4104,14.52,920,63.49,0.27,118,-160,2017-03-07T19:05:26.111Z
2124,100,0,0,1751,1236,1009.72,4108,14.54,30,63.55,0.27,111,-176,2017-03-07T18:57:42.761Z
2126,100,0,0,1750,1240,1009.66,4104,14.54,30,63.49,0.27,110,-159,2017-03-07T18:50:11.766Z
2126,100,0,0,1749,1235,1009.52,4104,14.54,30,63.78,0.27,112,-162,2017-03-07T18:42:20.588Z
2124,100,0,0,1748,1238,1009.63,4108,14.55,920,63.69,0.27,115,-168,2017-03-07T18:34:42.022Z
2126,100,0,0,1747,1244,1009.85,4104,14.56,30,63.72,0.27,113,-156,2017-03-07T18:26:58.181Z
2124,100,0,0,1746,1246,1009.84,4104,14.56,920,64.03,0.27,112,-165,2017-03-07T18:19:16.223Z
2124,100,0,0,1745,1240,1009.98,4108,14.57,920,64.09,0.27,111,-160,2017-03-07T18:11:35.939Z
2121,100,0,0,1744,1239,1009.84,4104,14.57,30,63.98,0.27,112,-160,2017-03-07T18:03:54.841Z
2126,100,0,0,1743,1251,1009.96,4108,14.58,30,63.98,0.27,118,-160,2017-03-07T17:56:12.442Z
2124,100,0,0,1742,1240,1010.01,4104,14.59,30,64.35,0.27,119,-164,2017-03-07T17:48:31.809Z
2129,100,0,0,1741,1248,1010.15,4108,14.6,920,64.3,0.27,103,-161,2017-03-07T17:40:51.023Z
2132,100,0,0,1739,1256,1010.34,4108,14.62,30,64.16,0.27,112,-154,2017-03-07T17:25:37.746Z
2124,10100,0,0,1738,1238,1010.46,4108,14.63,30,64.32,0.27,108,-173,2017-03-07T17:17:46.893Z
2124,100,0,0,1737,1228,1010.01,4104,14.64,920,64.8,0.27,111,-173,2017-03-07T17:10:12.133Z
2126,100,0,0,1736,1248,1010.09,4108,14.63,30,64.62,0.27,110,-164,2017-03-07T17:02:29.208Z
2124,100,0,0,1735,1251,1010.04,4108,14.64,920,64.46,0.27,108,-163,2017-03-07T16:54:43.648Z
2129,10100,0,0,1734,1243,1009.88,4108,14.64,30,64.83,0.27,112,-160,2017-03-07T16:47:02.892Z
2135,10100,0,0,1733,1234,1010.19,4108,14.64,30,64.99,0.27,110,-183,2017-03-07T16:39:20.547Z
2126,100,0,0,1732,1248,1010.52,4108,14.64,920,65.02,0.27,112,-157,2017-03-07T16:31:40.265Z
2132,100,0,0,1731,1235,1010.69,4108,14.64,920,65.09,0.27,112,-173,2017-03-07T16:24:03.363Z
2126,100,0,0,1730,1234,1010.62,4108,14.64,30,64.83,0.27,110,-172,2017-03-07T16:16:20.158Z
2124,100,0,0,1729,1248,1010.71,4108,14.64,30,65.23,0.27,115,-160,2017-03-07T16:08:37.788Z
2126,100,0,0,1728,1252,1010.66,4108,14.64,920,65.23,0.27,112,-157,2017-03-07T16:00:55.901Z
2132,100,0,0,1727,1262,1010.66,4113,14.64,30,65.18,0.27,108,-165,2017-03-07T15:53:13.972Z
2132,100,0,0,1726,1220,1010.57,13,14.64,30,65.07,0.27,103,-164,2017-03-07T15:45:32.715Z
2129,100,0,0,1725,1232,1010.59,13,14.64,920,64.32,0.27,111,-172,2017-03-07T15:37:51.931Z
2126,100,0,0,1724,1244,1010.8,8,14.64,30,65.71,0.27,112,-160,2017-03-07T15:30:16.782Z
2129,100,0,0,1723,1240,1010.74,8,14.64,30,65.73,0.27,112,-177,2017-03-07T15:22:29.077Z
2124,100,0,0,1722,1240,1010.72,8,14.64,30,65.44,0.27,120,-160,2017-03-07T15:14:48.407Z
2126,100,0,0,1721,1243,1010.91,4,14.64,920,65.36,0.27,108,-157,2017-03-07T15:07:06.833Z
2129,100,1,0,1720,1236,1010.76,4,14.64,920,66.27,0.27,119,-157,2017-03-07T14:59:28.958Z
2126,10100,0,0,1719,1240,1010.81,4,14.65,920,66.27,0.27,115,-154,2017-03-07T14:51:48.243Z
2129,100,2,0,1716,1235,1011.32,4,14.65,30,67.07,0.27,113,-182,2017-03-07T14:28:44.536Z
2138,100,2,0,1714,1251,1011.48,4,14.65,920,69.39,0.27,112,-157,2017-03-07T14:13:23.008Z
2129,100,1,0,1713,1231,1011.63,4,14.65,920,69.34,0.27,108,-180,2017-03-07T14:05:41.285Z
2132,1100,2,0,1712,1240,1011.86,4,14.7,30,71.13,0.27,116,-160,2017-03-07T13:58:00.018Z
2138,1100,2,0,1711,1252,1011.85,4,14.7,920,70.33,0.27,110,-154,2017-03-07T13:50:25.304Z
2129,1100,2,0,1710,1232,1011.97,4,14.73,30,71.26,0.27,113,-183,2017-03-07T13:42:42.585Z
2135,1100,3,0,1709,1251,1012.04,4,14.74,920,70.56,0.27,120,-162,2017-03-07T13:35:04.209Z
2129,100,9,0,1707,1251,1012.1,4,14.67,920,69.42,0.27,113,-156,2017-03-07T13:19:34.500Z
2132,100,9,0,1706,1249,1012.04,4,14.64,820,69.25,0.27,110,-160,2017-03-07T13:11:53.531Z
2126,100,11,0,1704,1242,1012.4,4113,14.43,30,67.89,0.27,124,-168,2017-03-07T12:56:31.158Z
2129,100,14,0,1703,1240,1012.31,4113,14.41,30,66.8,0.27,119,-168,2017-03-07T12:48:48.979Z
2132,100,14,0,1702,1240,1012.54,4113,14.41,30,66.4,0.27,119,-169,2017-03-07T12:41:07.439Z
2132,100,12,0,1701,1235,1012.53,4113,14.39,130,66.27,0.27,118,-180,2017-03-07T12:33:28.036Z
2132,100,1,0,1700,1239,1012.4,4113,14.34,30,65.84,0.27,126,-168,2017-03-07T12:25:45.465Z
2132,100,1,0,1698,1252,1012.29,4113,14.33,130,65.79,0.27,121,-169,2017-03-07T12:10:19.896Z
2124,100,2,0,1695,1251,1012.59,4117,14.34,30,66,0.27,121,-170,2017-03-07T11:47:15.049Z
2124,100,1,0,1694,1246,1012.7,4117,14.35,30,66.05,0.27,123,-162,2017-03-07T11:39:40.412Z
2124,100,1,0,1693,1248,1012.66,4117,14.37,130,66.96,0.27,124,-167,2017-03-07T11:31:50.849Z
2129,100,1,0,1692,1248,1012.68,4113,14.36,130,66.05,0.27,127,-173,2017-03-07T11:24:15.106Z
2132,100,2,0,1691,1230,1012.52,4117,14.37,130,67.2,0.27,119,-185,2017-03-07T11:16:26.553Z
2124,100,1,0,1690,1236,1012.76,4117,14.37,30,66.38,0.27,120,-165,2017-03-07T11:08:45.708Z
2132,100,2,0,1689,1243,1012.65,4117,14.37,230,66.93,0.27,121,-163,2017-03-07T11:01:03.961Z
2135,100,2,0,1688,1247,1012.62,4117,14.39,30,67.52,0.27,127,-167,2017-03-07T10:53:26.242Z
2129,100,1,0,1687,1256,1012.67,4113,14.39,230,67.73,0.27,120,-167,2017-03-07T10:45:39.910Z
2124,100,1,0,1686,1235,1012.7,4117,14.4,130,67.7,0.27,117,-189,2017-03-07T10:37:58.927Z
2126,100,2,0,1685,1251,1012.82,4117,14.4,130,67.79,0.27,126,-168,2017-03-07T10:30:21.031Z
2126,100,2,0,1684,1246,1012.8,4117,14.4,230,67.7,0.27,124,-167,2017-03-07T10:22:34.453Z
2126,100,1,0,1683,1248,1012.78,4117,14.41,30,67.49,0.27,124,-168,2017-03-07T10:14:53.311Z
2129,100,1,0,1682,1235,1012.76,4117,14.42,130,67.54,0.27,113,-181,2017-03-07T10:07:14.009Z
2129,100,0,0,1681,1236,1012.59,4117,14.44,30,67.89,0.27,127,-167,2017-03-07T09:59:35.115Z
2129,100,0,0,1680,1263,1012.51,4117,14.45,230,68.05,0.27,127,-169,2017-03-07T09:51:56.176Z
2124,100,0,0,1679,1228,1012.42,4113,14.46,130,68.13,0.27,119,-181,2017-03-07T09:44:07.769Z
2126,100,1,0,1678,1248,1012.25,4117,14.47,30,68.08,0.27,127,-164,2017-03-07T09:36:24.804Z
2129,100,0,0,1677,1254,1012.06,4117,14.47,130,68.64,0.27,127,-164,2017-03-07T09:28:43.906Z
2126,100,1,0,1675,1240,1011.78,4117,14.49,30,68.75,0.27,127,-164,2017-03-07T09:13:28.551Z
2126,100,0,0,1674,1238,1011.75,4117,14.51,30,69.18,0.27,127,-185,2017-03-07T09:05:39.319Z
2132,100,0,0,1673,1239,1011.78,4117,14.52,130,69.23,0.27,131,-170,2017-03-07T08:57:57.887Z
2126,100,0,0,1672,1248,1011.8,4117,14.55,230,69.71,0.27,129,-167,2017-03-07T08:50:15.586Z
2135,100,1,0,1671,1235,1011.9,4117,14.57,130,69.5,0.27,124,-185,2017-03-07T08:42:35.396Z
2129,100,0,0,1670,1248,1012.06,4122,14.6,30,69.76,0.27,119,-167,2017-03-07T08:34:55.815Z
2126,100,0,0,1669,1228,1012.2,4117,14.6,130,69.44,0.27,120,-177,2017-03-07T08:27:11.051Z
2129,100,7,0,1668,1241,1012.39,4117,14.5,130,66.16,0.27,126,-168,2017-03-07T08:19:30.068Z
2126,100,6,0,1667,1240,1012.35,4122,14.44,230,65.7,0.27,131,-170,2017-03-07T08:11:55.465Z
2124,100,6,0,1666,1247,1012.3,4122,14.46,30,65.73,0.27,124,-169,2017-03-07T08:04:07.315Z
2121,100,6,0,1665,1230,1012.23,4122,14.46,130,65.79,0.27,123,-185,2017-03-07T07:56:26.301Z
2124,100,6,0,1664,1248,1012.08,4122,14.44,130,65.79,0.27,120,-168,2017-03-07T07:48:45.367Z
2124,100,0,0,1663,1252,1012.03,4117,14.45,30,65.34,0.27,125,-170,2017-03-07T07:41:03.343Z
2132,100,6,0,1662,1228,1011.95,4117,14.42,230,65.28,0.27,120,-185,2017-03-07T07:33:21.311Z
2126,100,6,0,1661,1244,1011.97,4122,14.39,130,64.8,0.27,123,-162,2017-03-07T07:25:39.728Z
2124,100,0,0,1660,1232,1011.9,4122,14.36,230,64.91,0.27,120,-165,2017-03-07T07:18:01.480Z
2132,100,0,0,1659,1248,1011.88,4122,14.34,230,64.88,0.27,121,-164,2017-03-07T07:10:23.585Z
2129,100,0,0,1658,1231,1011.77,4122,14.34,30,64.88,0.27,103,-177,2017-03-07T07:02:35.239Z
2121,1000100,0,0,1657,1248,1011.71,4122,14.34,130,64.93,0.27,121,-168,2017-03-07T06:54:51.040Z
2132,100,0,0,1656,1248,1011.61,4122,14.35,130,65.04,0.27,121,-170,2017-03-07T06:47:09.534Z
2124,100,0,0,1655,1248,1011.6,4122,14.36,30,65.07,0.27,120,-172,2017-03-07T06:39:28.705Z
2126,100,0,0,1654,1244,1011.46,4122,14.36,30,65.09,0.27,123,-185,2017-03-07T06:31:46.586Z
2124,100,0,0,1653,1241,1011.29,4122,14.37,230,65.09,0.27,126,-168,2017-03-07T06:24:04.537Z
2124,100,0,0,1652,1248,1011.13,4122,14.37,130,65.09,0.27,124,-168,2017-03-07T06:16:24.113Z
2124,100,0,0,1651,1248,1011.24,4126,14.39,30,65.18,0.27,127,-168,2017-03-07T06:08:47.002Z
2129,100,0,0,1648,1244,1011.32,4122,14.39,30,65.23,0.27,125,-164,2017-03-07T05:45:39.110Z
2126,100,0,0,1647,1249,1011.17,4126,14.4,30,65.23,0.27,126,-167,2017-03-07T05:37:56.011Z
2124,100,0,0,1645,1240,1011.27,4122,14.41,230,65.25,0.27,120,-167,2017-03-07T05:22:32.769Z
2132,100,0,0,1644,1244,1011.19,4122,14.41,230,65.23,0.27,126,-168,2017-03-07T05:14:55.395Z
2132,100,0,0,1643,1227,1011.12,4122,14.42,30,65.25,0.27,121,-184,2017-03-07T05:07:13.506Z
2132,100,0,0,1642,1248,1011.14,4126,14.41,130,65.23,0.27,119,-164,2017-03-07T04:59:27.137Z
2132,100,0,0,1641,1230,1011.11,4122,14.42,30,65.23,0.27,124,-185,2017-03-07T04:51:45.022Z
2124,100,0,0,1640,1251,1011.05,4126,14.42,230,65.23,0.27,124,-164,2017-03-07T04:44:04.188Z
2132,100,0,0,1639,1235,1011.07,4122,14.42,230,65.25,0.27,129,-168,2017-03-07T04:36:31.200Z
2126,100,0,0,1637,1232,1011.33,4122,14.43,230,65.25,0.27,115,-181,2017-03-07T04:20:58.500Z
2129,100,0,0,1635,1235,1011.17,4126,14.42,130,65.28,0.27,120,-184,2017-03-07T04:05:41.916Z
2129,100,0,0,1634,1250,1011.13,4126,14.43,230,65.34,0.27,131,-167,2017-03-07T03:57:55.091Z
2124,100,0,0,1633,1240,1011.04,4122,14.45,130,65.34,0.27,121,-167,2017-03-07T03:50:19.411Z
2129,100,0,0,1632,1235,1010.93,4126,14.45,30,65.36,0.27,124,-170,2017-03-07T03:42:32.721Z
2124,100,0,0,1631,1254,1010.79,4126,14.46,230,65.34,0.27,127,-168,2017-03-07T03:34:53.277Z
2126,100,0,0,1630,1228,1010.88,4126,14.47,230,65.36,0.27,113,-178,2017-03-07T03:27:08.361Z
2124,100,0,0,1629,1244,1010.63,4126,14.47,230,65.36,0.27,124,-165,2017-03-07T03:19:27.488Z
2121,100,0,0,1627,1244,1010.66,4126,14.48,130,65.36,0.27,123,-165,2017-03-07T03:04:04.161Z
2129,100,0,0,1626,1247,1010.67,4126,14.48,130,65.36,0.27,123,-164,2017-03-07T02:56:24.118Z
2124,100,0,0,1625,1247,1010.6,4126,14.49,130,65.34,0.27,123,-167,2017-03-07T02:48:40.262Z
2126,100,0,0,1624,1240,1010.45,4126,14.49,130,65.31,0.27,124,-168,2017-03-07T02:41:00.232Z
2124,100,0,0,1623,1224,1010.22,4126,14.49,130,65.39,0.27,127,-188,2017-03-07T02:33:17.441Z
2124,100,0,0,1622,1244,1010.1,4130,14.5,30,65.44,0.27,127,-165,2017-03-07T02:25:38.783Z
2129,100,0,0,1621,1248,1010.08,4113,14.5,230,65.41,0.27,126,-173,2017-03-07T02:17:57.024Z
2129,100,0,0,1620,1227,1010.1,4126,14.52,30,65.39,0.27,120,-177,2017-03-07T02:10:13.204Z
2129,100,0,0,1619,1254,1010.07,4130,14.52,130,65.39,0.27,127,-167,2017-03-07T02:02:36.667Z
2126,100,0,0,1618,1243,1010.14,4126,14.52,30,65.36,0.27,131,-168,2017-03-07T01:54:51.739Z
2124,100,0,0,1617,1244,1010.19,4130,14.54,230,65.41,0.27,124,-168,2017-03-07T01:47:13.191Z
2126,100,0,0,1616,1240,1010.08,4130,14.54,230,65.41,0.27,124,-161,2017-03-07T01:39:27.962Z
2129,100,0,0,1615,1231,1010.18,4130,14.54,130,65.44,0.27,124,-186,2017-03-07T01:31:46.320Z
2126,100,0,0,1614,1235,1010.17,4130,14.54,30,65.47,0.27,116,-180,2017-03-07T01:24:07.233Z
2126,100,0,0,1613,1232,1010.12,4126,14.54,30,65.55,0.27,118,-185,2017-03-07T01:16:29.121Z
2124,100,0,0,1612,1248,1010.1,4130,14.55,130,65.6,0.27,127,-170,2017-03-07T01:08:44.984Z
2124,100,0,0,1611,1241,1010.06,4130,14.55,230,65.66,0.27,126,-168,2017-03-07T01:01:00.628Z
2124,100,0,0,1610,1240,1010.14,4130,14.56,230,65.76,0.27,131,-165,2017-03-07T00:53:19.213Z
2126,100,0,0,1608,1239,1009.76,4130,14.58,30,65.92,0.27,126,-168,2017-03-07T00:38:02.203Z
2126,100,0,0,1606,1236,1009.58,4130,14.6,30,66.11,0.27,124,-173,2017-03-07T00:22:33.775Z
2124,100,0,0,1604,1252,1009.41,4122,14.6,30,66.3,0.27,124,-169,2017-03-07T00:07:20.955Z
2132,100,0,0,1603,1228,1009.27,4130,14.6,230,66.35,0.27,121,-185,2017-03-06T23:59:35.429Z
2132,100,0,0,1601,1231,1009.19,4130,14.58,230,66.43,0.27,127,-180,2017-03-06T23:44:13.620Z
2135,100,0,0,1600,1238,1009.08,4130,14.57,230,66.51,0.27,135,-162,2017-03-06T23:36:26.762Z
2129,100,0,0,1598,1238,1009.06,4130,14.56,230,66.43,0.27,120,-185,2017-03-06T23:21:03.510Z
2132,100,0,0,1597,1248,1009,4130,14.63,130,65.36,0.27,126,-170,2017-03-06T23:13:29.814Z
2124,100100,0,0,1596,1235,1008.87,4130,14.83,30,63.35,0.27,127,-169,2017-03-06T23:05:44.504Z
2121,100,0,0,1595,1228,1008.89,4130,14.18,620,63.55,0.27,93,-232,2017-03-06T22:57:59.467Z
2121,100,0,0,1594,1233,1008.82,4130,14.18,620,63.61,0.27,103,-221,2017-03-06T22:50:20.157Z
2124,100,0,0,1593,1238,1008.67,4130,14.2,620,63.75,0.27,107,-224,2017-03-06T22:42:34.767Z
2124,100,0,0,1592,1240,1008.65,4130,14.2,620,63.83,0.27,99,-223,2017-03-06T22:34:58.729Z
2121,100,0,0,1591,1219,1008.43,4130,14.21,620,63.93,0.27,103,-241,2017-03-06T22:27:18.393Z
2126,100,0,0,1590,1235,1008.32,4135,14.21,520,64.06,0.27,102,-221,2017-03-06T22:19:34.754Z
2124,100,0,0,1589,1232,1008.26,4130,14.21,620,64.22,0.27,102,-224,2017-03-06T22:11:46.874Z
2129,100,0,0,1588,1220,1008.1,4130,14.22,620,64.06,0.27,105,-239,2017-03-06T22:04:07.174Z
2129,100,0,0,1587,1238,1007.94,4135,14.22,620,64.19,0.27,105,-224,2017-03-06T21:56:22.636Z
2126,100,0,0,1585,1239,1007.63,4130,14.22,520,64.06,0.27,104,-218,2017-03-06T21:41:03.649Z
2126,100,0,0,1584,1219,1007.5,4135,14.22,620,64.11,0.27,92,-232,2017-03-06T21:33:16.034Z
2121,100,0,0,1583,1235,1007.43,4135,14.21,620,64.03,0.27,108,-224,2017-03-06T21:25:32.948Z
2124,100,0,0,1582,1223,1007.26,4130,14.2,620,63.95,0.27,100,-241,2017-03-06T21:17:50.922Z
2129,100,0,0,1581,1235,1007.19,4135,14.21,620,63.93,0.27,110,-217,2017-03-06T21:10:09.435Z
2126,100,0,0,1579,1239,1006.91,4135,14.2,620,63.78,0.27,103,-225,2017-03-06T20:54:53.267Z
2124,100,0,0,1577,1238,1006.75,4135,14.19,620,63.9,0.27,108,-225,2017-03-06T20:39:29.402Z
2129,100,0,0,1576,1232,1006.67,4135,14.19,620,63.83,0.27,95,-232,2017-03-06T20:31:38.226Z
2124,100,0,0,1575,1244,1006.64,4135,14.19,620,63.9,0.27,100,-223,2017-03-06T20:23:59.866Z
2121,100,0,0,1574,1240,1006.46,4139,14.19,620,63.93,0.27,108,-221,2017-03-06T20:16:20.342Z
2126,100,0,0,1573,1235,1006.3,4135,14.19,620,63.9,0.27,105,-223,2017-03-06T20:08:30.916Z
2121,100,0,0,1572,1227,1006.14,4135,14.19,620,64.03,0.27,95,-233,2017-03-06T20:00:48.798Z
2126,100,0,0,1571,1223,1005.98,4135,14.19,620,64,0.27,88,-232,2017-03-06T19:53:11.211Z
2121,100,0,0,1570,1236,1005.9,4135,14.19,620,64.03,0.27,100,-221,2017-03-06T19:45:26.991Z
2129,100,0,0,1569,1236,1005.74,4135,14.19,620,64,0.27,107,-221,2017-03-06T19:37:41.711Z
2121,100,0,0,1568,1228,1005.64,4135,14.19,620,63.97,0.27,95,-237,2017-03-06T19:30:05.519Z
2126,100,0,0,1567,1228,1005.6,4135,14.2,620,64,0.27,104,-224,2017-03-06T19:22:16.946Z
2121,100,0,0,1565,1238,1005.59,4135,14.2,620,63.9,0.27,100,-217,2017-03-06T19:06:51.544Z
