vcc,status1,vpd,status2,txno,acc_z,p,vbat,t,rssi,rh,id,acc_y,acc_x,timestamp
2607,1001100,999,0,939,1143,1031.53,3871,15.37,120,88.09,0.79,56,-148,2017-03-15T10:30:58.320Z
2625,1001100,999,0,938,1150,1031.65,3871,15.21,120,88.58,0.79,63,-152,2017-03-15T10:25:07.447Z
2642,1001100,999,0,937,1150,1031.77,3875,15.09,120,89.03,0.79,57,-148,2017-03-15T10:19:06.903Z
2666,1001100,999,0,936,1159,1031.87,3871,15.07,120,89.22,0.79,54,-148,2017-03-15T10:13:11.121Z
2704,1001100,999,0,935,1164,1031.92,3871,15.06,120,89.48,0.79,52,-152,2017-03-15T10:07:16.735Z
2745,1001100,999,0,934,1171,1032.16,3871,15.01,120,89.98,0.79,56,-161,2017-03-15T10:01:20.287Z
2800,1001100,999,0,933,1179,1032.33,3871,14.93,120,90.63,0.79,60,-153,2017-03-15T09:55:25.319Z
2865,1001100,999,0,932,1192,1032.54,3871,14.86,120,91.16,0.79,56,-164,2017-03-15T09:49:30.335Z
2938,1001100,999,0,931,1207,1032.77,3871,14.75,120,91.68,0.79,60,-164,2017-03-15T09:43:36.692Z
2997,11100,999,0,930,1228,1033.02,3875,14.72,120,92.32,0.79,65,-153,2017-03-15T09:37:42.804Z
2997,101100,999,0,929,1239,1033.36,3871,14.61,120,92.96,0.79,55,-188,2017-03-15T09:31:49.552Z
2997,101100,999,0,928,1262,1033.58,3875,14.54,120,93.6,0.79,28,-244,2017-03-15T09:25:59.875Z
2997,101100,999,0,927,1286,1033.72,3875,14.5,120,94.21,0.79,183,-116,2017-03-15T09:20:09.032Z
2997,1100,999,0,926,1262,1033.79,3875,14.43,120,95.04,0.79,35,-173,2017-03-15T09:14:22.740Z
2997,1100,999,0,925,1283,1033.89,3875,14.34,120,95.86,0.79,54,-152,2017-03-15T09:08:40.405Z
2997,1100,999,0,924,1299,1033.95,3880,14.27,120,96.63,0.79,63,-160,2017-03-15T09:03:02.747Z
2997,1100,999,0,923,1318,1033.91,3884,14.2,120,97.36,0.79,54,-180,2017-03-15T08:57:29.330Z
2997,1100,999,0,922,1324,1033.87,3880,14.15,120,97.9,0.79,47,-193,2017-03-15T08:52:04.148Z
2997,1100,991,0,921,1324,1033.85,3884,14.12,120,98.3,0.79,56,-189,2017-03-15T08:46:35.952Z
2997,1100,962,0,920,1320,1033.94,3871,14.06,120,98.69,0.79,51,-193,2017-03-15T08:40:59.642Z
2997,1100,999,0,919,1312,1033.83,3880,14.05,120,98.91,0.79,56,-169,2017-03-15T08:35:27.844Z
2997,1100,966,0,918,1291,1033.76,3880,14.03,120,99.06,0.79,62,-157,2017-03-15T08:29:51.116Z
2997,101100,940,0,917,1262,1033.56,3875,14,120,99.14,0.79,38,-177,2017-03-15T08:24:10.852Z
2997,101100,828,0,916,1279,1033.49,3875,13.98,120,99.06,0.79,267,-145,2017-03-15T08:18:25.711Z
2997,11100,650,0,915,1295,1033.42,3875,13.93,120,98.91,0.79,44,-244,2017-03-15T08:12:44.173Z
2997,11100,694,0,914,1246,1033.1,3875,13.9,120,98.52,0.79,35,-208,2017-03-15T08:06:47.076Z
2997,1011100,747,0,913,1231,1032.64,3875,13.81,120,97.56,0.79,67,-164,2017-03-15T08:00:53.234Z
2964,1001100,732,0,912,1208,1032.28,3875,13.66,120,97.04,0.79,64,-148,2017-03-15T07:55:02.981Z
2894,1001100,637,0,911,1191,1032.07,3871,13.63,120,96.89,0.79,60,-168,2017-03-15T07:49:01.721Z
2806,1001100,608,0,910,1182,1031.89,3875,13.62,120,96.74,0.79,65,-157,2017-03-15T07:43:04.987Z
2701,1011100,670,0,909,1148,1031.68,3875,13.59,120,96.24,0.79,58,-146,2017-03-15T07:37:07.149Z
2598,1111100,609,0,908,1127,1031.34,3875,13.54,120,95.44,0.79,52,-161,2017-03-15T07:31:09.546Z
2452,1001100,458,0,907,1336,1030.59,3875,13.41,120,92.45,0.79,71,-196,2017-03-15T07:25:10.360Z
2425,1001100,451,0,906,1321,1030.52,3875,13.33,120,91.23,0.79,64,-207,2017-03-15T07:19:10.481Z
2411,1100,418,0,905,1308,1030.3,3875,13.28,120,90.75,0.79,60,-204,2017-03-15T07:13:10.672Z
2408,1001100,291,0,904,1315,1030.31,3875,13.22,120,90.65,0.79,63,-212,2017-03-15T07:07:15.222Z
2387,1100,167,0,903,1294,1030.33,3875,13.16,120,89.91,0.79,71,-208,2017-03-15T07:01:10.614Z
2387,1100,121,0,902,1300,1030.18,3871,13.17,120,89.74,0.79,64,-205,2017-03-15T06:55:09.198Z
2393,1100,140,0,901,1299,1030.22,3875,13.17,120,89.76,0.79,57,-208,2017-03-15T06:49:08.185Z
2396,1100,110,0,900,1304,1030.36,3875,13.16,120,89.89,0.79,66,-205,2017-03-15T06:43:07.423Z
2390,1100,79,0,899,1276,1030.33,3875,13.16,120,89.91,0.79,55,-214,2017-03-15T06:37:06.487Z
2390,1100,48,0,898,1304,1030.37,3875,13.16,120,89.91,0.79,63,-209,2017-03-15T06:31:13.177Z
2387,1100,22,0,897,1295,1030.23,3875,13.17,120,89.96,0.79,56,-208,2017-03-15T06:25:04.852Z
2390,1100,14,0,896,1304,1030.19,3875,13.18,120,89.93,0.79,75,-199,2017-03-15T06:19:03.599Z
2387,1100,8,0,895,1290,1030.13,3875,13.19,120,89.91,0.79,60,-212,2017-03-15T06:13:02.795Z
2387,1100,4,0,894,1295,1030.12,3875,13.21,120,89.91,0.79,60,-208,2017-03-15T06:07:07.441Z
2387,1100,0,0,893,1297,1030.07,3871,13.21,120,89.91,0.79,67,-210,2017-03-15T06:01:05.288Z
2390,1100,0,0,892,1295,1030,3875,13.25,120,89.76,0.79,54,-205,2017-03-15T05:55:00.916Z
2384,1100,0,0,891,1299,1030,3875,13.26,120,89.69,0.79,73,-208,2017-03-15T05:49:00.270Z
2384,1100,0,0,890,1296,1029.98,3875,13.26,120,89.67,0.79,60,-205,2017-03-15T05:42:59.228Z
2387,1100,0,0,889,1302,1029.93,3875,13.27,120,89.55,0.79,64,-202,2017-03-15T05:37:00.354Z
2384,1100,0,0,888,1304,1029.93,3875,13.27,120,89.51,0.79,67,-207,2017-03-15T05:30:58.578Z
2384,1100,0,0,887,1299,1029.91,3875,13.29,120,89.58,0.79,59,-205,2017-03-15T05:24:56.607Z
2384,1100,0,0,886,1304,1029.85,3875,13.31,120,89.62,0.79,71,-205,2017-03-15T05:18:57.059Z
2387,1100,0,0,885,1296,1029.89,3875,13.32,120,89.67,0.79,63,-205,2017-03-15T05:13:00.983Z
2384,1100,0,0,884,1311,1029.93,3875,13.32,120,89.67,0.79,63,-205,2017-03-15T05:06:54.934Z
2384,1100,0,0,883,1302,1030.03,3875,13.32,120,89.64,0.79,72,-212,2017-03-15T05:00:55.650Z
2384,1100,0,0,882,1297,1030.03,3875,13.33,120,89.6,0.79,67,-208,2017-03-15T04:54:53.023Z
2387,1100,0,0,881,1310,1029.9,3875,13.33,120,89.58,0.79,68,-205,2017-03-15T04:48:52.297Z
2384,1100,0,0,880,1304,1029.93,3875,13.37,120,89.53,0.79,67,-208,2017-03-15T04:42:52.778Z
2384,1100,0,0,879,1295,1030.02,3875,13.37,120,89.55,0.79,73,-217,2017-03-15T04:36:57.026Z
2384,1100,0,0,878,1311,1029.92,3875,13.38,120,89.6,0.79,71,-207,2017-03-15T04:30:50.804Z
2381,1100,0,0,877,1302,1029.89,3875,13.41,120,89.53,0.79,67,-209,2017-03-15T04:24:52.624Z
2381,1100,0,0,876,1310,1029.91,3875,13.41,120,89.46,0.79,75,-208,2017-03-15T04:18:50.114Z
2381,1100,0,0,875,1288,1029.95,3875,13.42,120,89.4,0.79,60,-209,2017-03-15T04:12:48.973Z
2381,1100,0,0,874,1292,1029.94,3875,13.43,120,89.45,0.79,59,-212,2017-03-15T04:06:49.813Z
2381,1100,0,0,873,1296,1029.94,3875,13.43,120,89.46,0.79,67,-201,2017-03-15T04:00:49.592Z
2381,1100,0,0,872,1304,1030.01,3875,13.47,120,89.4,0.79,71,-205,2017-03-15T03:54:51.972Z
2384,1100,0,0,871,1299,1030.08,3875,13.48,120,89.35,0.79,71,-216,2017-03-15T03:48:47.068Z
2381,1100,0,0,870,1295,1030.09,3875,13.51,120,89.35,0.79,72,-208,2017-03-15T03:42:46.322Z
2378,1100,0,0,869,1303,1030.05,3875,13.54,120,89.35,0.79,65,-207,2017-03-15T03:36:45.466Z
2387,1100,0,0,868,1302,1030.05,3875,13.56,120,89.32,0.79,64,-208,2017-03-15T03:30:49.827Z
2378,1100,0,0,867,1284,1030.02,3875,13.6,120,89.23,0.79,59,-209,2017-03-15T03:24:44.604Z
2384,1100,0,0,866,1292,1030.07,3875,13.6,120,89.2,0.79,59,-212,2017-03-15T03:18:49.419Z
2378,1100,0,0,865,1297,1029.91,3875,13.62,120,89.13,0.79,65,-207,2017-03-15T03:12:54.710Z
2378,1100,0,0,864,1299,1030.06,3871,13.66,120,89.04,0.79,73,-207,2017-03-15T03:06:43.838Z
2378,1100,0,0,863,1297,1030.02,3875,13.71,120,88.96,0.79,63,-205,2017-03-15T03:00:46.824Z
2384,1100,0,0,862,1292,1029.95,3875,13.72,120,88.96,0.79,70,-213,2017-03-15T02:54:48.027Z
2384,1100,0,0,861,1295,1029.94,3875,13.76,120,88.94,0.79,67,-209,2017-03-15T02:48:43.435Z
2381,1100,0,0,860,1299,1029.96,3875,13.78,120,88.91,0.79,65,-207,2017-03-15T02:42:43.418Z
2387,1100,0,0,859,1292,1030.12,3875,13.8,120,88.89,0.79,57,-212,2017-03-15T02:36:48.250Z
2381,1100,0,0,858,1307,1030.17,3875,13.82,120,88.94,0.79,72,-207,2017-03-15T02:30:52.071Z
2384,1100,0,0,856,1296,1030.23,3875,13.84,120,89.07,0.79,67,-205,2017-03-15T02:18:42.985Z
2387,1100,0,0,855,1283,1030.26,3875,13.84,120,89.12,0.79,56,-209,2017-03-15T02:12:43.273Z
2387,1100,0,0,854,1299,1030.37,3875,13.86,120,89.12,0.79,71,-212,2017-03-15T02:06:44.014Z
2393,1100,0,0,852,1299,1030.4,3875,13.88,120,89.18,0.79,70,-208,2017-03-15T01:54:42.933Z
2393,1100,0,0,851,1294,1030.5,3875,13.87,120,89.25,0.79,56,-208,2017-03-15T01:48:48.084Z
2393,1100,0,0,850,1292,1030.57,3875,13.88,120,89.32,0.79,59,-210,2017-03-15T01:42:43.737Z
2396,1100,0,0,849,1295,1030.6,3875,13.9,120,89.36,0.79,60,-212,2017-03-15T01:36:43.744Z
2396,1100,0,0,847,1302,1030.74,3875,13.9,120,89.48,0.79,59,-208,2017-03-15T01:24:43.766Z
2399,1100,0,0,846,1283,1030.78,3875,13.9,120,89.54,0.79,56,-208,2017-03-15T01:18:44.805Z
2399,1100,0,0,845,1304,1030.82,3875,13.91,120,89.5,0.79,68,-205,2017-03-15T01:12:50.352Z
2399,1100,0,0,844,1307,1030.7,3875,13.92,120,89.5,0.79,68,-205,2017-03-15T01:06:48.498Z
2408,1100,0,0,843,1299,1030.68,3875,13.91,120,89.52,0.79,57,-208,2017-03-15T01:00:45.520Z
2399,1100,0,0,842,1295,1030.69,3875,13.92,120,89.5,0.79,60,-212,2017-03-15T00:54:45.589Z
2399,1100,0,0,841,1308,1030.67,3875,13.92,120,89.5,0.79,63,-202,2017-03-15T00:48:45.434Z
2405,1100,0,0,840,1297,1030.45,3875,13.92,120,89.5,0.79,67,-208,2017-03-15T00:42:45.509Z
2402,1100,0,0,839,1310,1030.38,3875,13.92,120,89.54,0.79,63,-208,2017-03-15T00:36:45.915Z
2399,1100,0,0,838,1296,1030.32,3875,13.92,120,89.54,0.79,60,-217,2017-03-15T00:30:46.261Z
2402,1100,0,0,837,1299,1030.31,3875,13.93,120,89.52,0.79,63,-204,2017-03-15T00:24:47.941Z
2405,1100,0,0,836,1292,1030.19,3875,13.93,120,89.52,0.79,56,-212,2017-03-15T00:18:50.278Z
2399,1100,0,0,835,1299,1030.22,3875,13.95,120,89.54,0.79,65,-205,2017-03-15T00:12:47.535Z
2399,1100,0,0,834,1287,1030.16,3875,13.95,120,89.45,0.79,56,-208,2017-03-15T00:06:47.353Z
2402,1100,0,0,832,1302,1030.1,3875,13.97,120,89.48,0.79,60,-207,2017-03-14T23:54:48.011Z
2405,1100,0,0,831,1294,1030.06,3875,13.98,120,89.5,0.79,52,-212,2017-03-14T23:48:49.234Z
2408,1100,0,0,830,1308,1030.03,3875,13.98,120,89.56,0.79,68,-208,2017-03-14T23:42:48.835Z
2405,1100,0,0,829,1305,1029.97,3875,13.96,120,89.61,0.79,73,-201,2017-03-14T23:36:54.100Z
2405,1100,0,0,828,1303,1029.84,3875,13.97,120,89.68,0.79,71,-208,2017-03-14T23:30:50.077Z
2405,1100,0,0,827,1296,1029.82,3875,13.96,120,89.77,0.79,60,-209,2017-03-14T23:24:49.870Z
2402,1100,0,0,826,1308,1029.84,3875,13.96,120,89.63,0.79,62,-205,2017-03-14T23:18:50.742Z
2405,1100,0,0,825,1308,1029.68,3875,13.95,120,89.54,0.79,63,-213,2017-03-14T23:12:50.218Z
2405,1100,0,0,824,1305,1029.66,3875,13.95,120,89.58,0.79,73,-205,2017-03-14T23:06:51.735Z
2411,1100,0,0,822,1305,1029.61,3875,13.95,120,89.7,0.79,63,-205,2017-03-14T22:54:57.886Z
2408,1100,0,0,821,1297,1029.63,3875,13.92,120,89.79,0.79,59,-209,2017-03-14T22:48:57.002Z
2408,1100,0,0,820,1294,1029.7,3875,13.92,120,89.9,0.79,63,-209,2017-03-14T22:42:52.293Z
2411,1100,0,0,819,1300,1029.67,3875,13.91,120,90.1,0.79,59,-205,2017-03-14T22:36:52.665Z
2411,1001100,0,0,818,1308,1029.64,3875,13.9,120,90.42,0.79,62,-207,2017-03-14T22:30:56.001Z
2396,1100,0,0,817,1302,1029.61,3875,13.86,120,89.81,0.79,67,-205,2017-03-14T22:24:54.008Z
2390,1100,0,0,816,1296,1029.53,3871,13.84,120,89.52,0.79,63,-202,2017-03-14T22:18:53.878Z
2393,1100,0,0,815,1299,1029.51,3880,13.85,120,89.54,0.79,67,-205,2017-03-14T22:12:53.370Z
2387,1100,0,0,813,1287,1029.48,3875,13.87,120,89.5,0.79,55,-209,2017-03-14T22:01:06.647Z
2387,1100,0,0,811,1289,1029.47,3875,13.87,120,89.48,0.79,57,-208,2017-03-14T21:48:59.626Z
2393,1001100,0,0,810,1294,1029.45,3875,13.88,120,89.5,0.79,71,-212,2017-03-14T21:42:54.625Z
2381,1100,0,0,809,1287,1029.32,3875,13.89,120,89.45,0.79,65,-212,2017-03-14T21:36:54.283Z
2378,1100,0,0,807,1284,1029.31,3875,13.92,120,89.36,0.79,56,-210,2017-03-14T21:24:54.895Z
2375,1100,0,0,806,1302,1029.28,3875,13.92,120,89.36,0.79,63,-200,2017-03-14T21:18:58.539Z
2378,1100,0,0,805,1299,1029.29,3875,13.93,120,89.52,0.79,67,-205,2017-03-14T21:12:53.747Z
2373,1100,0,0,804,1296,1029.19,3875,13.93,120,89.5,0.79,70,-205,2017-03-14T21:06:54.406Z
2367,1100,0,0,803,1296,1029.11,3875,13.97,120,89.32,0.79,75,-210,2017-03-14T21:00:56.710Z
2364,11100,0,0,802,1299,1028.98,3875,13.98,120,89.25,0.79,67,-200,2017-03-14T20:54:54.023Z
2358,1001100,0,0,801,1302,1028.71,3875,14,120,89.03,0.79,71,-205,2017-03-14T20:48:59.534Z
2337,1100,0,0,800,1295,1028.56,3875,14.02,120,88.09,0.79,71,-200,2017-03-14T20:42:53.541Z
2329,1100,0,0,799,1296,1028.47,3875,14.03,120,87.37,0.79,71,-200,2017-03-14T20:36:53.656Z
2332,1100,0,0,798,1289,1028.54,3875,14.03,120,87.3,0.79,76,-208,2017-03-14T20:30:55.137Z
2323,1100,0,0,797,1284,1028.54,3875,14.03,120,87.22,0.79,71,-204,2017-03-14T20:24:53.106Z
2323,1100,0,0,796,1299,1028.52,3875,14.05,120,87.1,0.79,70,-200,2017-03-14T20:18:53.884Z
2323,1100,0,0,795,1299,1028.37,3875,14.09,120,86.99,0.79,73,-200,2017-03-14T20:12:54.481Z
2311,1100,0,0,793,1296,1028.23,3875,14.12,120,86.72,0.79,71,-197,2017-03-14T20:00:53.967Z
2311,1100,0,0,792,1292,1028.25,3875,14.14,120,86.59,0.79,71,-201,2017-03-14T19:54:53.299Z
2305,1100,0,0,791,1295,1028.14,3875,14.15,120,86.41,0.79,72,-204,2017-03-14T19:48:52.712Z
2311,1001100,0,0,790,1287,1028.14,3875,14.17,120,86.2,0.79,71,-204,2017-03-14T19:42:52.429Z
2299,1100,0,0,789,1283,1028.24,3875,14.18,120,86.1,0.79,56,-205,2017-03-14T19:36:52.886Z
2302,1100,0,0,788,1287,1028.21,3875,14.18,120,86.07,0.79,70,-202,2017-03-14T19:31:02.220Z
2296,1100,0,0,787,1287,1028.16,3875,14.22,120,85.98,0.79,52,-205,2017-03-14T19:24:53.472Z
2291,1100,0,0,786,1283,1027.93,3875,14.25,120,85.74,0.79,70,-208,2017-03-14T19:18:52.256Z
2285,1100,0,0,785,1287,1027.91,3875,14.27,120,85.27,0.79,51,-205,2017-03-14T19:12:52.591Z
2285,1100,0,0,784,1272,1027.86,3875,14.3,120,84.79,0.79,49,-208,2017-03-14T19:06:57.550Z
2279,1100,0,0,783,1286,1027.82,3875,14.31,120,84.46,0.79,73,-200,2017-03-14T19:00:52.433Z
2273,1100,0,0,781,1279,1027.7,3880,14.36,120,83.83,0.79,73,-202,2017-03-14T18:48:52.218Z
2270,1100,0,0,780,1279,1027.63,3875,14.39,120,83.61,0.79,56,-200,2017-03-14T18:43:02.490Z
2273,1100,0,0,779,1275,1027.62,3875,14.43,120,83.38,0.79,52,-208,2017-03-14T18:36:52.312Z
2267,1100,1,0,778,1283,1027.64,3875,14.47,120,83.31,0.79,49,-200,2017-03-14T18:30:55.326Z
2270,1100,6,0,777,1272,1027.67,3875,14.5,120,83.34,0.79,49,-208,2017-03-14T18:24:52.325Z
2270,1100,12,0,776,1276,1027.63,3875,14.55,120,83.24,0.79,48,-200,2017-03-14T18:18:53.868Z
2270,1100,22,0,775,1260,1027.51,3875,14.6,120,83.16,0.79,47,-205,2017-03-14T18:13:01.632Z
2264,1100,35,0,774,1267,1027.43,3875,14.72,120,83.05,0.79,48,-208,2017-03-14T18:06:53.882Z
2267,1100,54,0,773,1264,1027.39,3875,14.72,120,83.09,0.79,49,-208,2017-03-14T18:00:54.708Z
2270,1100,76,0,772,1271,1027.37,3875,14.73,120,83.16,0.79,56,-208,2017-03-14T17:54:53.780Z
2276,1100,95,0,771,1292,1027.25,3875,14.74,120,83.11,0.79,72,-196,2017-03-14T17:48:54.965Z
2276,1100,118,0,770,1287,1027.31,3875,14.84,20,83.27,0.79,67,-199,2017-03-14T17:42:55.010Z
2279,1100,125,0,769,1279,1027.32,3875,14.89,20,83.4,0.79,51,-207,2017-03-14T17:36:57.435Z
2276,1100,134,0,768,1284,1027.22,3875,14.92,20,83.37,0.79,73,-193,2017-03-14T17:30:56.949Z
2279,1100,157,0,767,1279,1027.11,3875,14.95,20,83.49,0.79,71,-200,2017-03-14T17:24:59.948Z
2276,1100,169,0,766,1284,1027.13,3875,14.99,20,83.37,0.79,77,-201,2017-03-14T17:18:58.345Z
2276,1100,178,0,765,1265,1027.03,3875,15.02,20,82.88,0.79,56,-214,2017-03-14T17:13:04.224Z
2279,1100,191,0,764,1278,1026.95,3875,15.05,20,82.68,0.79,73,-205,2017-03-14T17:07:00.594Z
2279,1100,206,0,763,1273,1026.94,3875,15.09,20,82.7,0.79,54,-205,2017-03-14T17:01:02.615Z
2276,1100,222,0,762,1275,1026.86,3875,15.15,20,82.79,0.79,48,-212,2017-03-14T16:55:03.296Z
2276,1100,239,0,761,1283,1026.94,3875,15.19,20,82.85,0.79,76,-201,2017-03-14T16:49:05.983Z
2285,1100,253,0,760,1278,1027.09,3875,15.23,20,82.83,0.79,49,-205,2017-03-14T16:43:10.116Z
2282,1001100,259,0,759,1290,1027.1,3875,15.29,20,82.96,0.79,75,-199,2017-03-14T16:37:06.729Z
2293,1100,274,0,758,1283,1027.07,3875,15.34,20,83.28,0.79,56,-205,2017-03-14T16:31:08.430Z
2291,1100,302,0,757,1289,1027.15,3875,15.4,20,83.48,0.79,71,-200,2017-03-14T16:25:10.379Z
2296,1100,338,0,756,1299,1027.28,3875,15.47,20,83.63,0.79,73,-199,2017-03-14T16:19:11.862Z
2302,1100,522,0,755,1296,1027.28,3875,15.53,20,83.82,0.79,76,-205,2017-03-14T16:13:14.218Z
2311,1100,464,0,754,1295,1027.27,3875,15.61,20,84.04,0.79,72,-204,2017-03-14T16:07:19.378Z
2320,1100,771,0,753,1294,1027.29,3875,15.65,20,84.31,0.79,73,-205,2017-03-14T16:01:24.499Z
2323,1100,666,0,752,1295,1027.34,3875,15.63,20,84.74,0.79,76,-205,2017-03-14T15:55:27.300Z
2329,1100,700,0,751,1302,1027.33,3875,15.6,20,85.14,0.79,76,-205,2017-03-14T15:49:23.789Z
2334,1100,617,0,750,1304,1027.26,3875,15.62,20,85.43,0.79,75,-202,2017-03-14T15:43:32.284Z
2340,1100,527,0,749,1292,1027.39,3875,15.67,20,85.66,0.79,71,-208,2017-03-14T15:37:29.203Z
2346,1100,395,0,748,1305,1027.35,3875,15.68,910,86,0.79,73,-200,2017-03-14T15:31:33.318Z
2355,1100,613,0,747,1297,1027.39,3875,15.73,20,86.43,0.79,76,-209,2017-03-14T15:25:35.510Z
2361,1100,589,0,746,1299,1027.34,3875,15.82,20,86.78,0.79,71,-200,2017-03-14T15:19:38.567Z
2364,1100,629,0,745,1286,1027.28,3875,15.85,20,86.77,0.79,73,-208,2017-03-14T15:13:41.112Z
2361,11100,728,0,744,1304,1027.33,3875,15.87,20,86.83,0.79,71,-196,2017-03-14T15:07:44.575Z
2352,1100,788,0,743,1311,1027.04,3875,15.87,20,86.59,0.79,76,-200,2017-03-14T15:01:47.552Z
2343,1100,867,0,742,1303,1026.96,3871,15.89,910,85.57,0.79,78,-207,2017-03-14T14:55:50.882Z
2334,1100,720,0,741,1299,1026.91,3875,15.81,410,85.57,0.79,79,-201,2017-03-14T14:49:53.845Z
2334,1100,380,0,740,1304,1026.93,3875,15.8,410,85.71,0.79,79,-202,2017-03-14T14:43:56.566Z
2326,1011100,570,0,739,1307,1027.04,3875,15.85,410,85.52,0.79,78,-199,2017-03-14T14:37:59.924Z
2311,1100,902,0,738,1299,1026.77,3875,15.83,510,84.15,0.79,72,-200,2017-03-14T14:32:03.646Z
2311,1100,999,0,737,1299,1026.8,3875,15.75,510,83.79,0.79,60,-205,2017-03-14T14:26:06.045Z
2308,1100,999,0,735,1292,1026.71,3875,15.69,910,83.23,0.79,60,-208,2017-03-14T14:14:12.863Z
2317,1100,607,0,734,1287,1026.83,3875,15.64,910,83.68,0.79,71,-205,2017-03-14T14:08:13.765Z
2323,11100,999,0,733,1311,1026.69,3875,15.76,910,83.68,0.79,81,-207,2017-03-14T14:02:28.553Z
2329,1100,999,0,732,1299,1026.97,3875,15.61,910,84.27,0.79,76,-205,2017-03-14T13:56:26.756Z
2334,1100,601,0,731,1307,1026.95,3875,15.67,910,84.49,0.79,79,-198,2017-03-14T13:50:22.687Z
2337,1100,999,0,730,1310,1027.04,3875,15.61,910,84.81,0.79,76,-201,2017-03-14T13:44:30.807Z
2343,1100,868,0,729,1295,1027.01,3875,15.61,910,85.01,0.79,72,-201,2017-03-14T13:38:28.216Z
2352,1100,911,0,728,1310,1026.95,3875,15.63,910,85.21,0.79,76,-210,2017-03-14T13:32:31.918Z
2358,1001100,999,0,727,1304,1026.99,3875,15.69,910,85.32,0.79,71,-200,2017-03-14T13:26:34.451Z
2373,1100,933,0,726,1304,1027.12,3875,15.64,910,85.64,0.79,67,-204,2017-03-14T13:20:46.211Z
2370,1100,842,0,725,1308,1027.08,3875,15.58,910,85.97,0.79,62,-205,2017-03-14T13:14:45.332Z
2373,1001100,939,0,724,1300,1027.19,3875,15.53,910,86.22,0.79,67,-202,2017-03-14T13:08:43.416Z
2384,1100,634,0,723,1299,1027.17,3875,15.58,910,86.17,0.79,63,-209,2017-03-14T13:02:46.569Z
2384,1100,999,0,722,1295,1027.09,3875,15.59,910,86.4,0.79,63,-208,2017-03-14T12:56:51.065Z
2460,1111100,914,0,720,1281,1027.51,3875,15.62,910,86.74,0.79,62,-204,2017-03-14T12:44:58.169Z
2516,1101100,999,0,719,1347,1027.82,3875,15.53,910,87.21,0.79,94,-177,2017-03-14T12:39:01.370Z
2534,1001100,999,0,718,1124,1027.78,3875,15.47,910,87.59,0.79,56,-149,2017-03-14T12:33:05.914Z
2554,1001100,999,0,717,1134,1028,3875,15.38,910,88.04,0.79,59,-153,2017-03-14T12:27:15.039Z
2566,1100,999,0,716,1136,1027.99,3875,15.21,910,88.61,0.79,60,-156,2017-03-14T12:21:14.355Z
2572,1100,999,0,715,1132,1028.09,3875,15.06,910,89.03,0.79,62,-153,2017-03-14T12:15:17.155Z
2575,1100,894,0,714,1129,1028.12,3871,14.95,910,89.32,0.79,56,-153,2017-03-14T12:09:20.529Z
2578,1100,452,0,713,1128,1028.13,3875,14.89,910,89.42,0.79,56,-153,2017-03-14T12:03:23.132Z
2586,1100,630,0,712,1134,1028.09,3875,14.95,910,89.39,0.79,62,-157,2017-03-14T11:57:31.407Z
2592,1100,857,0,711,1139,1028.13,3875,14.89,910,89.55,0.79,62,-156,2017-03-14T11:51:29.349Z
2598,1100,712,0,710,1137,1028.17,3875,14.87,910,89.68,0.79,56,-151,2017-03-14T11:45:33.430Z
2607,1100,736,0,709,1134,1028.17,3875,14.86,910,89.77,0.79,57,-148,2017-03-14T11:39:40.730Z
2610,1100,744,0,708,1139,1028.07,3875,14.8,910,89.95,0.79,60,-144,2017-03-14T11:33:38.750Z
2616,1100,999,0,707,1144,1028.07,3871,14.74,910,90.16,0.79,56,-148,2017-03-14T11:27:41.481Z
2619,1100,831,0,706,1136,1028.06,3875,14.73,910,90.18,0.79,57,-153,2017-03-14T11:21:51.166Z
2625,1100,670,0,705,1139,1028,3875,14.73,910,90.2,0.79,60,-148,2017-03-14T11:15:49.702Z
2630,1100,749,0,704,1142,1027.94,3875,14.73,910,90.26,0.79,60,-148,2017-03-14T11:09:50.303Z
2636,1100,675,0,703,1148,1027.93,3875,14.73,910,90.33,0.79,56,-145,2017-03-14T11:03:53.846Z
2639,1100,689,0,702,1144,1028.01,3875,14.73,910,90.44,0.79,56,-145,2017-03-14T10:57:56.805Z
2642,1100,602,0,701,1144,1028.02,3875,14.73,910,90.48,0.79,62,-146,2017-03-14T10:51:59.354Z
2651,1001100,626,0,700,1145,1028.13,3875,14.72,910,90.53,0.79,56,-136,2017-03-14T10:46:02.344Z
2663,1100,443,0,699,1151,1028.21,3875,14.73,910,90.51,0.79,63,-145,2017-03-14T10:40:05.594Z
2671,1001100,886,0,698,1150,1028.09,3880,14.72,910,90.66,0.79,57,-145,2017-03-14T10:34:19.884Z
2683,1100,943,0,697,1155,1028.13,3875,14.72,910,90.81,0.79,60,-148,2017-03-14T10:28:18.685Z
2692,1100,764,0,696,1155,1028.1,3875,14.6,910,91.03,0.79,63,-145,2017-03-14T10:22:16.144Z
2698,1100,706,0,695,1148,1028.1,3875,14.55,910,91.2,0.79,59,-145,2017-03-14T10:16:21.228Z
2707,1001100,558,0,694,1151,1028.07,3875,14.52,910,91.25,0.79,59,-144,2017-03-14T10:10:23.704Z
2718,1100,621,0,693,1155,1028.09,3875,14.52,910,91.34,0.79,63,-149,2017-03-14T10:04:29.717Z
2724,1100,642,0,692,1159,1028.12,3875,14.5,910,91.43,0.79,60,-144,2017-03-14T09:58:28.952Z
2733,1100,669,0,691,1159,1028.09,3875,14.47,910,91.57,0.79,59,-153,2017-03-14T09:52:31.874Z
2742,1100,580,0,690,1158,1028.13,3875,14.43,910,91.7,0.79,62,-152,2017-03-14T09:46:36.867Z
2748,1100,454,0,689,1167,1028.1,3875,14.41,910,91.79,0.79,56,-157,2017-03-14T09:40:40.609Z
2756,1001100,435,0,688,1161,1028.13,3875,14.4,910,91.84,0.79,54,-157,2017-03-14T09:34:52.511Z
2768,1100,589,0,687,1167,1028.13,3875,14.41,910,91.84,0.79,56,-162,2017-03-14T09:28:45.915Z
2777,1001100,642,0,686,1176,1028.14,3880,14.36,910,91.96,0.79,64,-154,2017-03-14T09:22:49.047Z
2789,1001100,627,0,685,1176,1028.12,3875,14.33,910,92.08,0.79,64,-157,2017-03-14T09:16:53.297Z
2815,1001100,381,0,683,1172,1028.09,3875,14.26,910,92.4,0.79,63,-159,2017-03-14T09:04:59.823Z
2830,1001100,337,0,682,1176,1028.19,3875,14.25,910,92.54,0.79,59,-160,2017-03-14T08:59:04.737Z
2847,1001100,366,0,681,1180,1028.24,3875,14.22,910,92.67,0.79,60,-162,2017-03-14T08:53:07.437Z
2859,1001100,377,0,680,1185,1028.13,3880,14.2,910,92.86,0.79,57,-164,2017-03-14T08:47:12.876Z
2876,101100,314,0,679,1191,1028.16,3875,14.15,120,93.17,0.79,55,-160,2017-03-14T08:41:14.818Z
2871,1100,276,0,678,1196,1028.15,3880,14.09,120,93.31,0.79,107,-178,2017-03-14T08:35:20.730Z
2874,1001100,275,0,677,1193,1028.17,3880,13.99,620,93.23,0.79,57,-164,2017-03-14T08:29:23.041Z
2885,1100,301,0,676,1198,1028.2,3875,13.97,620,93.38,0.79,59,-168,2017-03-14T08:23:32.970Z
2891,1001100,253,0,675,1199,1028.23,3871,13.96,620,93.45,0.79,56,-170,2017-03-14T08:17:32.311Z
2903,1100,244,0,674,1198,1028.12,3875,13.92,620,93.6,0.79,51,-173,2017-03-14T08:11:35.579Z
2909,1100,220,0,673,1191,1028.1,3875,13.91,620,93.67,0.79,51,-176,2017-03-14T08:05:39.414Z
2912,1100,228,0,672,1200,1028.01,3880,13.89,620,93.77,0.79,54,-175,2017-03-14T07:59:42.497Z
2917,1100,199,0,671,1203,1028.17,3880,13.85,620,93.9,0.79,52,-177,2017-03-14T07:53:46.934Z
2920,1100,166,0,670,1199,1028.22,3875,13.84,620,93.98,0.79,51,-175,2017-03-14T07:47:51.770Z
2909,1001100,111,0,667,1196,1028.48,3875,13.77,620,94.04,0.79,56,-176,2017-03-14T07:30:07.816Z
2885,1001100,116,0,666,1191,1028.37,3880,13.76,620,93.89,0.79,56,-168,2017-03-14T07:24:10.790Z
2865,1100,98,0,665,1183,1028.36,3880,13.72,620,93.41,0.79,55,-160,2017-03-14T07:18:09.268Z
2859,1001100,93,0,664,1183,1028.29,3880,13.63,620,93.13,0.79,60,-159,2017-03-14T07:12:13.326Z
2871,1100,77,0,663,1193,1028.36,3880,13.62,620,93.21,0.79,57,-161,2017-03-14T07:06:17.089Z
2876,1100,83,0,662,1187,1028.34,3880,13.62,620,93.3,0.79,62,-167,2017-03-14T07:00:19.483Z
2879,1100,61,0,661,1191,1028.29,3880,13.6,620,93.35,0.79,54,-165,2017-03-14T06:54:23.126Z
2882,1100,39,0,660,1190,1028.24,3880,13.6,620,93.41,0.79,56,-162,2017-03-14T06:48:26.169Z
2888,1100,30,0,659,1191,1028.26,3880,13.6,620,93.44,0.79,56,-164,2017-03-14T06:42:29.369Z
2897,1100,21,0,658,1191,1028.22,3880,13.6,620,93.47,0.79,56,-173,2017-03-14T06:36:36.967Z
2900,1100,17,0,657,1196,1028.25,3880,13.58,620,93.56,0.79,48,-172,2017-03-14T06:30:36.707Z
2906,1100,8,0,656,1191,1028.19,3880,13.56,620,93.61,0.79,55,-175,2017-03-14T06:24:38.179Z
2912,1100,5,0,655,1196,1028.22,3875,13.57,620,93.63,0.79,56,-177,2017-03-14T06:18:42.054Z
2917,1100,3,0,654,1203,1028.19,3880,13.57,620,93.7,0.79,56,-183,2017-03-14T06:12:45.470Z
2920,1100,2,0,653,1200,1028.35,3880,13.57,620,93.76,0.79,52,-177,2017-03-14T06:06:49.747Z
2926,1100,0,0,652,1200,1028.37,3880,13.57,620,93.78,0.79,60,-170,2017-03-14T06:00:55.056Z
2932,1100,0,0,651,1199,1028.26,3880,13.56,620,93.84,0.79,51,-175,2017-03-14T05:54:56.141Z
2935,1100,0,0,650,1200,1028.31,3880,13.57,620,93.89,0.79,54,-162,2017-03-14T05:49:04.884Z
2944,1100,0,0,649,1204,1028.42,3875,13.56,620,93.97,0.79,55,-169,2017-03-14T05:43:02.861Z
2947,1100,0,0,647,1203,1028.41,3871,13.56,620,94.02,0.79,59,-152,2017-03-14T05:31:10.034Z
2956,1100,0,0,646,1206,1028.3,3880,13.56,620,94.06,0.79,56,-152,2017-03-14T05:25:13.638Z
2958,1100,0,0,645,1208,1028.28,3875,13.56,620,94.1,0.79,57,-148,2017-03-14T05:19:17.772Z
2964,1100,0,0,644,1207,1028.28,3880,13.57,620,94.1,0.79,63,-153,2017-03-14T05:13:22.866Z
2964,1100,0,0,643,1212,1028.33,3880,13.55,620,94.15,0.79,62,-148,2017-03-14T05:07:25.179Z
2970,1100,0,0,642,1209,1028.28,3880,13.54,620,94.19,0.79,63,-146,2017-03-14T05:01:34.475Z
2973,1100,0,0,641,1215,1028.03,3880,13.53,620,94.21,0.79,60,-144,2017-03-14T04:55:36.613Z
2979,1100,0,0,639,1219,1027.69,3880,13.53,620,94.28,0.79,60,-143,2017-03-14T04:43:41.003Z
2985,1100,0,0,638,1212,1027.79,3880,13.53,620,94.3,0.79,63,-141,2017-03-14T04:37:51.557Z
2991,1100,1,0,637,1215,1027.89,3880,13.53,620,94.32,0.79,63,-141,2017-03-14T04:31:48.828Z
2997,1100,1,0,636,1216,1027.99,3880,13.51,620,94.44,0.79,67,-148,2017-03-14T04:25:53.717Z
2997,1100,1,0,635,1217,1028,3880,13.51,620,94.49,0.79,63,-143,2017-03-14T04:20:02.361Z
2997,1100,1,0,634,1220,1028.04,3880,13.48,620,94.57,0.79,64,-149,2017-03-14T04:14:06.724Z
2997,1100,1,0,633,1219,1028.1,3880,13.48,620,94.57,0.79,67,-148,2017-03-14T04:08:05.863Z
2997,1100,1,0,632,1219,1028.13,3880,13.47,620,94.63,0.79,68,-153,2017-03-14T04:02:10.632Z
2997,1100,1,0,631,1224,1028.18,3880,13.46,620,94.68,0.79,67,-151,2017-03-14T03:56:14.607Z
2997,1100,1,0,630,1220,1028.2,3880,13.45,620,94.76,0.79,68,-153,2017-03-14T03:50:19.623Z
2997,1100,1,0,629,1225,1028.27,3880,13.45,620,94.79,0.79,63,-153,2017-03-14T03:44:23.479Z
2997,1100,1,0,628,1228,1028.29,3880,13.44,620,94.83,0.79,67,-153,2017-03-14T03:38:28.017Z
2997,1100,1,0,627,1225,1028.33,3880,13.43,620,94.9,0.79,67,-157,2017-03-14T03:32:33.282Z
2997,1100,1,0,626,1215,1028.43,3880,13.43,620,94.94,0.79,65,-157,2017-03-14T03:26:44.076Z
2997,1100,1,0,624,1230,1028.49,3880,13.41,620,95.05,0.79,67,-157,2017-03-14T03:14:47.252Z
2997,1100,1,0,623,1232,1028.52,3880,13.41,620,95.08,0.79,65,-160,2017-03-14T03:08:53.031Z
2997,1100,1,0,622,1235,1028.55,3880,13.4,620,95.16,0.79,67,-167,2017-03-14T03:03:02.428Z
2997,1100,1,0,621,1231,1028.62,3880,13.4,620,95.21,0.79,65,-161,2017-03-14T02:57:07.648Z
2997,1100,1,0,620,1235,1028.61,3880,13.4,620,95.25,0.79,63,-162,2017-03-14T02:51:10.573Z
2997,1100,1,0,619,1230,1028.72,3880,13.39,620,95.33,0.79,63,-164,2017-03-14T02:45:13.091Z
2997,1100,1,0,618,1232,1028.68,3880,13.39,620,95.37,0.79,57,-169,2017-03-14T02:39:16.722Z
2997,1100,1,0,617,1233,1028.73,3880,13.39,620,95.38,0.79,57,-173,2017-03-14T02:33:27.106Z
2997,1100,2,0,615,1233,1028.88,3880,13.41,620,95.4,0.79,62,-165,2017-03-14T02:21:33.274Z
2997,1100,1,0,613,1232,1028.89,3884,13.44,620,95.4,0.79,62,-170,2017-03-14T02:09:42.561Z
2997,1100,1,0,612,1235,1028.87,3884,13.44,620,95.42,0.79,56,-172,2017-03-14T02:03:47.297Z
2997,1100,1,0,611,1235,1028.94,3875,13.48,620,95.42,0.79,51,-185,2017-03-14T01:57:53.522Z
2997,1100,1,0,610,1233,1029.03,3880,13.48,620,95.44,0.79,54,-173,2017-03-14T01:52:01.551Z
2997,1100,1,0,609,1238,1029.05,3880,13.52,620,95.44,0.79,56,-177,2017-03-14T01:46:04.540Z
2997,1100,1,0,608,1240,1029.19,3880,13.53,620,95.49,0.79,51,-180,2017-03-14T01:40:09.115Z
2997,1100,1,0,607,1240,1029.39,3880,13.54,620,95.49,0.79,49,-185,2017-03-14T01:34:16.431Z
2997,1100,1,0,606,1255,1029.43,3880,13.55,620,95.57,0.79,39,-213,2017-03-14T01:28:22.876Z
2997,1100,1,0,605,1248,1029.46,3880,13.56,620,95.6,0.79,46,-200,2017-03-14T01:22:28.603Z
2997,1100,2,0,604,1251,1029.48,3884,13.58,620,95.64,0.79,44,-208,2017-03-14T01:16:40.080Z
2997,1100,2,0,602,1248,1029.48,3875,13.61,620,95.73,0.79,39,-207,2017-03-14T01:04:50.279Z
2997,1100,2,0,601,1249,1029.51,3880,13.62,620,95.79,0.79,28,-223,2017-03-14T00:58:53.360Z
2997,1100,2,0,600,1254,1029.68,3880,13.65,620,95.86,0.79,28,-231,2017-03-14T00:53:00.015Z
2997,1100,2,0,599,1260,1029.8,3880,13.67,620,95.95,0.79,30,-240,2017-03-14T00:47:08.049Z
2997,1100,2,0,598,1259,1029.86,3880,13.69,620,96.11,0.79,34,-241,2017-03-14T00:41:20.027Z
2997,1100,2,0,597,1264,1029.97,3880,13.69,620,96.16,0.79,31,-241,2017-03-14T00:35:24.461Z
2997,1100,2,0,596,1273,1029.88,3884,13.69,620,96.34,0.79,44,-239,2017-03-14T00:29:35.964Z
2997,101100,2,0,595,1279,1030.08,3880,13.7,620,96.42,0.79,46,-244,2017-03-14T00:23:39.579Z
2997,1100,2,0,594,1284,1030.15,3884,13.71,620,96.55,0.79,73,-191,2017-03-14T00:17:48.643Z
2997,1100,2,0,593,1278,1030.22,3880,13.71,620,96.72,0.79,87,-177,2017-03-14T00:11:57.750Z
2997,1100,3,0,592,1286,1030.27,3884,13.72,620,96.83,0.79,96,-176,2017-03-14T00:06:12.941Z
2997,1100,3,0,591,1284,1030.32,3884,13.73,620,96.94,0.79,96,-173,2017-03-14T00:00:18.303Z
2997,1100,3,0,590,1276,1030.22,3884,13.73,620,97.09,0.79,92,-173,2017-03-13T23:54:28.998Z
2997,1100,3,0,589,1294,1030.13,3880,13.74,620,97.17,0.79,119,-159,2017-03-13T23:48:39.683Z
2997,1100,3,0,587,1279,1030.38,3884,13.76,620,97.24,0.79,111,-161,2017-03-13T23:37:02.997Z
2997,1100,3,0,586,1295,1030.3,3884,13.77,620,97.24,0.79,97,-170,2017-03-13T23:31:12.575Z
2997,101100,3,0,585,1302,1030.33,3875,13.77,620,97.24,0.79,104,-157,2017-03-13T23:25:30.991Z
2997,1100,3,0,584,1276,1030.29,3880,13.8,620,97.17,0.79,71,-208,2017-03-13T23:19:32.566Z
2997,1100,2,0,582,1279,1030.24,3875,13.8,620,97.09,0.79,51,-234,2017-03-13T23:07:51.287Z
2997,1100,3,0,581,1279,1030.15,3884,13.8,620,97.05,0.79,44,-240,2017-03-13T23:02:01.457Z
2997,1100,3,0,580,1272,1030.08,3871,13.8,620,97,0.79,38,-242,2017-03-13T22:56:09.565Z
2997,1100,2,0,579,1271,1030.07,3884,13.81,620,96.9,0.79,33,-240,2017-03-13T22:50:18.040Z
2997,1100,2,0,578,1270,1030.04,3884,13.82,620,96.85,0.79,33,-244,2017-03-13T22:44:28.364Z
2997,1100,2,0,577,1263,1030.08,3880,13.83,620,96.79,0.79,31,-241,2017-03-13T22:38:34.663Z
2997,1100,2,0,576,1254,1029.86,3884,13.85,620,96.7,0.79,32,-232,2017-03-13T22:32:42.752Z
2997,1100,2,0,575,1260,1029.8,3884,13.85,620,96.71,0.79,30,-229,2017-03-13T22:26:55.518Z
2997,1100,2,0,574,1255,1029.8,3884,13.86,620,96.68,0.79,35,-232,2017-03-13T22:20:57.368Z
2997,1100,2,0,573,1254,1029.72,3884,13.85,620,96.6,0.79,32,-220,2017-03-13T22:15:04.514Z
2997,1100,2,0,572,1252,1029.64,3884,13.87,620,96.56,0.79,39,-217,2017-03-13T22:09:11.476Z
2997,1100,2,0,571,1240,1029.65,3880,13.87,620,96.51,0.79,33,-204,2017-03-13T22:03:18.792Z
2997,1100,2,0,570,1248,1029.65,3880,13.88,620,96.43,0.79,44,-193,2017-03-13T21:57:25.569Z
2997,1100,2,0,569,1235,1029.64,3884,13.9,620,96.34,0.79,54,-185,2017-03-13T21:51:32.976Z
2997,1100,2,0,568,1235,1029.76,3884,13.91,620,96.27,0.79,48,-189,2017-03-13T21:45:38.211Z
2997,1100,2,0,567,1238,1029.66,3880,13.92,620,96.18,0.79,48,-181,2017-03-13T21:39:45.150Z
2997,1100,1,0,566,1241,1029.69,3884,13.92,620,96.11,0.79,56,-176,2017-03-13T21:33:50.481Z
2997,1100,1,0,565,1238,1029.82,3884,13.96,520,95.95,0.79,63,-162,2017-03-13T21:27:56.307Z
2997,1100,1,0,564,1227,1029.72,3884,13.96,620,95.88,0.79,64,-160,2017-03-13T21:22:02.253Z
2997,1100,1,0,563,1224,1029.64,3880,13.98,620,95.74,0.79,67,-153,2017-03-13T21:16:07.895Z
2997,1100,1,0,562,1223,1029.55,3884,14,620,95.54,0.79,70,-153,2017-03-13T21:10:13.731Z
2988,1001100,1,0,560,1212,1029.39,3880,14,620,95.24,0.79,65,-145,2017-03-13T20:58:22.177Z
2961,1001100,1,0,559,1211,1029.48,3880,14.02,620,95.04,0.79,62,-151,2017-03-13T20:52:26.291Z
2938,1001100,1,0,558,1208,1029.41,3884,14.03,620,94.9,0.79,65,-153,2017-03-13T20:46:36.660Z
2915,1001100,1,0,557,1200,1029.41,3884,14.04,520,94.7,0.79,54,-177,2017-03-13T20:40:37.597Z
2862,1001100,0,0,555,1184,1029.11,3884,14.07,620,94.28,0.79,67,-159,2017-03-13T20:28:41.426Z
2838,1001100,0,0,554,1187,1029.01,3880,14.09,620,94.12,0.79,62,-153,2017-03-13T20:22:45.422Z
2809,1001100,0,0,553,1175,1028.97,3880,14.12,620,93.82,0.79,65,-159,2017-03-13T20:16:48.401Z
2753,1001100,0,0,551,1163,1028.83,3884,14.13,520,93.31,0.79,59,-157,2017-03-13T20:04:55.071Z
2724,1001100,0,0,550,1152,1028.76,3871,14.14,620,93.02,0.79,57,-153,2017-03-13T19:59:02.058Z
2695,1001100,0,0,549,1155,1028.78,3880,14.14,520,92.85,0.79,60,-151,2017-03-13T19:52:59.461Z
2589,1001100,0,0,546,1132,1028.46,3880,14.19,620,92.05,0.79,54,-153,2017-03-13T19:35:06.033Z
2545,1111100,0,0,545,1123,1028.32,3880,14.19,620,91.77,0.79,56,-154,2017-03-13T19:29:07.806Z
2463,1001100,0,0,544,1328,1027.94,3880,14.19,620,91.26,0.79,67,-193,2017-03-13T19:23:08.567Z
2431,1001100,0,0,543,1319,1027.84,3880,14.19,620,90.85,0.79,70,-200,2017-03-13T19:17:10.618Z
2399,1001100,0,0,542,1316,1027.81,3880,14.18,520,90.17,0.79,70,-199,2017-03-13T19:11:11.583Z
2378,1001100,0,0,541,1308,1027.57,3880,14.22,620,89.36,0.79,71,-207,2017-03-13T19:05:11.564Z
2355,1001100,0,0,540,1304,1027.34,3884,14.22,620,88.78,0.79,76,-201,2017-03-13T18:59:12.835Z
2329,1001100,0,0,539,1299,1027.17,3880,14.27,620,88.31,0.79,79,-199,2017-03-13T18:53:13.572Z
2311,1001100,0,0,538,1291,1027.11,3880,14.29,520,87.82,0.79,56,-205,2017-03-13T18:47:13.927Z
2276,1001100,0,0,537,1292,1026.98,3880,14.26,520,86.5,0.79,56,-208,2017-03-13T18:41:14.651Z
2255,1001100,0,0,536,1273,1026.9,3880,14.24,620,84.79,0.79,48,-208,2017-03-13T18:35:14.150Z
2244,1001100,1,0,535,1272,1026.72,3880,14.24,620,83.41,0.79,51,-209,2017-03-13T18:29:15.106Z
2229,1001100,4,0,534,1273,1026.55,3884,14.22,620,82.37,0.79,48,-204,2017-03-13T18:23:14.828Z
2217,1100,8,0,533,1270,1026.44,3880,14.22,520,80.7,0.79,44,-212,2017-03-13T18:17:22.118Z
2220,1100,20,0,532,1272,1026.48,3884,14.26,620,80.41,0.79,48,-212,2017-03-13T18:11:13.913Z
2214,1100,30,0,531,1267,1026.42,3880,14.29,520,80.18,0.79,41,-212,2017-03-13T18:05:19.672Z
2211,1100,57,0,530,1260,1026.28,3880,14.33,620,79.87,0.79,46,-209,2017-03-13T17:59:12.710Z
2214,1100,80,0,529,1273,1026.26,3880,14.39,620,79.71,0.79,40,-208,2017-03-13T17:53:13.145Z
2214,1100,108,0,528,1256,1026.26,3880,14.43,520,79.6,0.79,48,-213,2017-03-13T17:47:13.100Z
2220,1100,162,0,527,1256,1026.21,3880,14.48,520,79.6,0.79,46,-208,2017-03-13T17:41:13.106Z
2214,1100,191,0,526,1264,1026.21,3880,14.54,620,79.57,0.79,46,-210,2017-03-13T17:35:14.962Z
2211,1100,224,0,525,1272,1026.11,3880,14.6,620,79.41,0.79,48,-208,2017-03-13T17:29:14.056Z
2208,1100,284,0,524,1256,1026.05,3880,14.67,620,79.25,0.79,39,-212,2017-03-13T17:23:14.165Z
2217,1100,338,0,523,1276,1026.03,3880,14.72,620,79.19,0.79,39,-208,2017-03-13T17:17:15.053Z
2214,1100,367,0,522,1272,1025.98,3880,14.73,520,79.21,0.79,44,-208,2017-03-13T17:11:15.784Z
2214,1100,379,0,521,1276,1025.98,3880,14.73,620,79.25,0.79,52,-212,2017-03-13T17:05:15.362Z
2211,1100,388,0,520,1270,1025.84,3880,14.74,620,79.34,0.79,40,-213,2017-03-13T16:59:16.633Z
2220,1100,432,0,519,1279,1025.9,3880,14.83,620,79.34,0.79,48,-212,2017-03-13T16:53:23.218Z
2211,1100,493,0,518,1268,1025.94,3880,14.86,520,79.34,0.79,41,-205,2017-03-13T16:47:18.899Z
2217,1100,521,0,517,1267,1025.8,3880,14.88,620,79.3,0.79,41,-209,2017-03-13T16:41:19.258Z
2214,1100,508,0,516,1276,1025.81,3880,14.91,620,79.29,0.79,43,-212,2017-03-13T16:35:20.364Z
2217,1100,580,0,515,1273,1025.84,3880,14.96,620,79.02,0.79,44,-210,2017-03-13T16:29:21.924Z
2217,1100,791,0,514,1272,1025.76,3880,14.98,620,78.92,0.79,44,-208,2017-03-13T16:23:27.622Z
2220,1100,757,0,513,1278,1025.82,3880,14.98,520,79.02,0.79,46,-209,2017-03-13T16:17:28.616Z
2214,1100,789,0,512,1264,1025.84,3875,14.96,620,79.22,0.79,40,-210,2017-03-13T16:11:27.428Z
2217,1100,639,0,511,1270,1025.79,3880,14.95,620,79.36,0.79,44,-210,2017-03-13T16:05:30.137Z
2220,1100,719,0,510,1279,1025.71,3880,14.98,620,79.47,0.79,48,-210,2017-03-13T15:59:31.957Z
2217,1100,672,0,509,1270,1025.64,3880,14.99,620,79.58,0.79,48,-209,2017-03-13T15:53:28.636Z
2217,1100,440,0,508,1281,1025.42,3880,15,520,79.45,0.79,44,-207,2017-03-13T15:47:30.296Z
2214,1100,428,0,506,1276,1025.5,3880,15.11,620,78.9,0.79,44,-207,2017-03-13T15:35:37.300Z
2217,1100,605,0,505,1268,1025.52,3880,15.14,620,78.75,0.79,44,-212,2017-03-13T15:29:32.373Z
2214,1100,594,0,504,1268,1025.42,3880,15.17,620,78.43,0.79,41,-212,2017-03-13T15:23:34.931Z
2217,1100,490,0,503,1272,1025.37,3884,15.22,520,78.09,0.79,48,-212,2017-03-13T15:17:34.861Z
2214,1100,470,0,502,1272,1025.4,3880,15.32,520,77.69,0.79,39,-210,2017-03-13T15:11:38.099Z
2208,1100,717,0,501,1279,1025.33,3880,15.38,620,77.42,0.79,46,-209,2017-03-13T15:05:39.061Z
2214,1100,821,0,500,1270,1025.46,3880,15.44,620,77.44,0.79,44,-210,2017-03-13T14:59:45.928Z
2217,1100,999,0,499,1275,1025.35,3880,15.43,620,77.42,0.79,44,-213,2017-03-13T14:53:42.054Z
2211,1100,799,0,498,1270,1025.43,3880,15.43,620,77.4,0.79,46,-217,2017-03-13T14:47:44.607Z
2211,1100,913,0,497,1270,1025.51,3880,15.48,620,77.33,0.79,44,-209,2017-03-13T14:41:45.876Z
2211,1100,999,0,496,1288,1025.35,3880,15.48,620,77.38,0.79,47,-212,2017-03-13T14:35:49.187Z
2214,1100,999,0,495,1276,1025.34,3880,15.47,520,77.57,0.79,48,-212,2017-03-13T14:29:51.624Z
2217,1100,999,0,494,1287,1025.29,3880,15.51,620,77.51,0.79,47,-210,2017-03-13T14:23:53.576Z
2220,1100,999,0,493,1272,1025.28,3880,15.46,520,77.75,0.79,44,-212,2017-03-13T14:18:01.189Z
2220,1100,999,0,492,1276,1025.27,3880,15.4,620,77.97,0.79,47,-208,2017-03-13T14:12:03.914Z
2223,1100,847,0,490,1283,1025.25,3880,15.48,620,77.96,0.79,46,-208,2017-03-13T14:00:01.823Z
2223,1100,565,0,489,1273,1025.2,3880,15.53,620,77.88,0.79,48,-210,2017-03-13T13:54:03.202Z
2232,1100,999,0,488,1291,1025.11,3880,15.53,520,78.12,0.79,48,-205,2017-03-13T13:48:05.809Z
2229,1100,999,0,487,1278,1025.24,3880,15.5,620,78.35,0.79,44,-209,2017-03-13T13:42:09.450Z
2232,1100,999,0,486,1278,1025.25,3880,15.53,520,78.41,0.79,47,-210,2017-03-13T13:36:11.663Z
2235,1100,999,0,485,1279,1025.28,3880,15.57,520,78.51,0.79,49,-208,2017-03-13T13:30:14.357Z
2235,1100,935,0,484,1286,1025.32,3880,15.47,520,78.96,0.79,54,-208,2017-03-13T13:24:16.346Z
2241,1100,999,0,483,1286,1025.39,3880,15.46,620,79.14,0.79,44,-202,2017-03-13T13:18:23.417Z
2241,1100,873,0,482,1276,1025.4,3880,15.39,520,79.35,0.79,49,-208,2017-03-13T13:12:26.510Z
2241,1100,811,0,481,1276,1025.2,3880,15.41,620,79.28,0.79,48,-209,2017-03-13T13:06:23.609Z
2241,1100,999,0,480,1287,1025.1,3880,15.47,520,79.28,0.79,54,-210,2017-03-13T13:00:28.846Z
2250,1100,999,0,478,1288,1025.01,3880,15.49,620,79.38,0.79,47,-205,2017-03-13T12:48:30.791Z
2255,1100,999,0,477,1286,1025.14,3880,15.49,620,79.67,0.79,51,-207,2017-03-13T12:42:38.440Z
2261,1100,999,0,476,1286,1025.2,3880,15.49,620,79.86,0.79,51,-208,2017-03-13T12:36:36.305Z
2267,1100,999,0,474,1292,1025.33,3880,15.5,520,80.24,0.79,51,-208,2017-03-13T12:24:40.956Z
2273,1100,999,0,473,1295,1025.37,3880,15.53,520,80.31,0.79,56,-205,2017-03-13T12:18:43.950Z
2276,1001100,999,0,472,1299,1025.38,3880,15.51,620,80.54,0.79,55,-205,2017-03-13T12:12:47.112Z
2291,1100,999,0,471,1304,1025.5,3880,15.44,620,80.92,0.79,51,-205,2017-03-13T12:06:51.762Z
2288,1100,999,0,470,1291,1025.4,3880,15.44,520,81.21,0.79,48,-205,2017-03-13T12:00:52.546Z
2296,1001100,999,0,469,1292,1025.44,3880,15.37,620,81.53,0.79,51,-205,2017-03-13T11:54:56.591Z
2308,1001100,999,0,468,1304,1025.46,3880,15.34,620,81.89,0.79,75,-200,2017-03-13T11:48:59.915Z
2326,1100,999,0,467,1310,1025.5,3880,15.3,620,82.45,0.79,76,-201,2017-03-13T11:43:02.798Z
2334,1100,999,0,466,1311,1025.43,3880,15.22,620,83.06,0.79,78,-202,2017-03-13T11:37:10.034Z
2343,1001100,999,0,465,1311,1025.54,3880,15.13,620,83.78,0.79,70,-205,2017-03-13T11:31:09.980Z
2361,1001100,999,0,464,1308,1025.54,3880,15.04,620,84.37,0.79,70,-196,2017-03-13T11:25:10.355Z
2373,1100,999,0,463,1308,1025.7,3880,14.94,520,84.82,0.79,67,-207,2017-03-13T11:19:13.276Z
2375,1001100,999,0,462,1299,1025.9,3880,14.89,620,85.11,0.79,64,-208,2017-03-13T11:13:15.386Z
2387,1001100,999,0,461,1303,1025.86,3880,14.83,520,85.56,0.79,67,-201,2017-03-13T11:07:20.863Z
2431,1111100,999,0,460,1260,1026.09,3884,14.74,620,85.98,0.79,62,-201,2017-03-13T11:01:20.293Z
2516,1101100,999,0,459,1331,1026.38,3880,14.74,620,86.54,0.79,105,-181,2017-03-13T10:55:24.924Z
2537,1001100,999,0,458,1126,1026.59,3880,14.73,620,86.92,0.79,51,-145,2017-03-13T10:49:25.447Z
2566,1001100,999,0,457,1134,1026.61,3880,14.74,620,87.28,0.79,48,-149,2017-03-13T10:43:28.946Z
2601,1001100,999,0,456,1137,1026.71,3880,14.78,620,87.68,0.79,56,-154,2017-03-13T10:37:34.867Z
2642,1001100,999,0,455,1150,1026.81,3880,14.73,620,88.34,0.79,56,-144,2017-03-13T10:31:36.639Z
2692,1001100,999,0,454,1153,1027.05,3875,14.73,620,88.94,0.79,57,-153,2017-03-13T10:25:47.257Z
2753,1001100,999,0,453,1174,1027.2,3880,14.71,620,89.87,0.79,56,-157,2017-03-13T10:19:45.112Z
2818,1001100,999,0,452,1179,1027.35,3880,14.55,620,90.55,0.79,67,-154,2017-03-13T10:13:50.624Z
2897,1001100,999,0,451,1196,1027.43,3880,14.45,620,91.26,0.79,57,-168,2017-03-13T10:07:55.518Z
2994,1100,999,0,450,1219,1027.67,3880,14.34,620,91.96,0.79,63,-153,2017-03-13T10:02:02.434Z
2997,111100,999,0,449,1238,1027.85,3871,14.24,520,92.79,0.79,54,-180,2017-03-13T09:56:08.778Z
2997,101100,999,0,448,1248,1028.17,3880,14.09,620,93.82,0.79,24,-240,2017-03-13T09:50:21.664Z
2997,101100,999,0,447,1275,1028.28,3880,13.92,620,94.72,0.79,174,-160,2017-03-13T09:44:27.076Z
2997,101100,999,0,446,1302,1028.4,3884,13.83,620,95.49,0.79,222,-106,2017-03-13T09:38:38.222Z
2997,1100,999,0,445,1256,1028.59,3884,13.8,620,96.25,0.79,39,-177,2017-03-13T09:32:52.950Z
2997,1100,999,0,444,1276,1028.63,3875,13.74,620,97.05,0.79,48,-157,2017-03-13T09:27:10.636Z
2997,1100,999,0,443,1279,1028.65,3889,13.63,520,97.59,0.79,44,-148,2017-03-13T09:21:29.578Z
2997,1100,999,0,442,1296,1028.71,3889,13.58,620,98.06,0.79,55,-160,2017-03-13T09:15:49.715Z
2997,1100,894,0,441,1287,1028.69,3889,13.55,620,98.4,0.79,54,-160,2017-03-13T09:10:12.427Z
2997,1100,999,0,440,1271,1028.51,3884,13.53,620,98.56,0.79,44,-170,2017-03-13T09:04:37.352Z
2997,111100,999,0,439,1249,1028.7,3889,13.48,620,98.59,0.79,31,-178,2017-03-13T08:58:50.069Z
2997,1100,996,0,438,1311,1028.36,3884,13.43,620,98.51,0.79,206,-113,2017-03-13T08:53:04.620Z
2997,111100,999,0,437,1304,1028.25,3884,13.34,620,98.23,0.79,199,-127,2017-03-13T08:47:15.955Z
2997,1100,999,0,435,1270,1027.91,3871,12.93,620,96.31,0.79,44,-239,2017-03-13T08:35:35.861Z
2997,101100,891,0,434,1264,1027.9,3884,12.84,620,96.55,0.79,48,-220,2017-03-13T08:29:41.079Z
2997,1100,462,0,433,1272,1027.83,3884,12.7,620,96.96,0.79,192,-145,2017-03-13T08:23:49.899Z
2997,1100,508,0,432,1272,1027.83,3889,12.7,620,97.22,0.79,175,-121,2017-03-13T08:17:59.487Z
2997,1100,447,0,431,1286,1027.87,3889,12.66,620,97.63,0.79,192,-100,2017-03-13T08:12:09.820Z
2997,1100,435,0,430,1283,1027.77,3889,12.65,620,98.02,0.79,199,-104,2017-03-13T08:06:20.292Z
2997,101100,300,0,428,1297,1027.62,3889,12.66,520,98.75,0.79,207,-119,2017-03-13T07:54:40.715Z
2997,1100,260,0,427,1276,1027.47,3871,12.68,620,99.04,0.79,31,-244,2017-03-13T07:48:50.640Z
2997,1100,225,0,426,1251,1027.31,3884,12.72,520,99.3,0.79,39,-205,2017-03-13T07:43:00.413Z
2997,1001100,179,0,424,1200,1026.86,3875,12.8,620,99.48,0.79,55,-152,2017-03-13T07:31:11.453Z
2967,1011100,157,0,423,1204,1026.67,3880,12.86,620,99.47,0.79,63,-170,2017-03-13T07:25:12.919Z
2856,1001100,163,0,422,1180,1026.38,3880,12.86,620,99.2,0.79,65,-156,2017-03-13T07:19:16.434Z
2794,1011100,177,0,421,1159,1026.18,3884,12.83,620,98.89,0.79,63,-157,2017-03-13T07:13:17.631Z
2668,1111100,142,0,420,1137,1025.68,3884,12.74,620,98.26,0.79,57,-148,2017-03-13T07:07:19.222Z
2487,1011100,115,0,419,1358,1024.89,3884,12.65,620,97.22,0.79,79,-181,2017-03-13T07:01:18.472Z
2381,1001100,117,0,418,1311,1024.3,3884,12.52,620,94.09,0.79,72,-200,2017-03-13T06:55:17.761Z
2349,1100,109,0,417,1302,1024.15,3884,12.41,620,91.23,0.79,75,-200,2017-03-13T06:49:16.676Z
2346,1100,90,0,416,1304,1024.2,3884,12.4,620,90.92,0.79,71,-201,2017-03-13T06:43:13.414Z
2346,1100,66,0,415,1304,1024.07,3884,12.41,620,90.8,0.79,71,-201,2017-03-13T06:37:13.874Z
2346,1100,20,0,413,1304,1023.92,3884,12.43,620,90.92,0.79,75,-200,2017-03-13T06:25:09.317Z
2346,1100,12,0,412,1300,1023.92,3884,12.47,620,90.96,0.79,73,-200,2017-03-13T06:19:08.046Z
2346,1100,7,0,411,1289,1023.72,3884,12.45,620,90.96,0.79,76,-201,2017-03-13T06:13:05.281Z
2346,1100,1,0,410,1302,1023.69,3884,12.48,620,91,0.79,79,-200,2017-03-13T06:07:02.375Z
2346,1100,0,0,409,1294,1023.62,3884,12.49,620,91,0.79,75,-201,2017-03-13T06:01:02.381Z
2346,1100,0,0,408,1296,1023.54,3884,12.52,620,90.91,0.79,76,-197,2017-03-13T05:54:59.479Z
2343,1100,0,0,407,1302,1023.53,3884,12.52,620,90.91,0.79,76,-200,2017-03-13T05:48:56.958Z
2346,1100,0,0,406,1294,1023.29,3884,12.54,620,90.93,0.79,76,-202,2017-03-13T05:43:00.669Z
2343,1100,0,0,405,1294,1023.15,3884,12.55,620,90.91,0.79,70,-199,2017-03-13T05:36:53.598Z
2340,1100,0,0,403,1300,1023.01,3884,12.57,620,90.81,0.79,72,-200,2017-03-13T05:24:50.303Z
2340,1100,0,0,402,1295,1022.93,3884,12.6,620,90.78,0.79,79,-194,2017-03-13T05:18:49.186Z
2343,1100,0,0,400,1304,1022.81,3884,12.62,620,90.83,0.79,78,-197,2017-03-13T05:06:51.100Z
2340,1100,0,0,399,1294,1022.76,3884,12.64,620,90.81,0.79,72,-202,2017-03-13T05:00:43.975Z
2340,1100,0,0,398,1299,1022.71,3884,12.66,620,90.85,0.79,75,-201,2017-03-13T04:54:43.161Z
2337,1100,0,0,397,1295,1022.68,3884,12.67,620,90.85,0.79,56,-207,2017-03-13T04:48:40.515Z
2340,1100,0,0,396,1288,1022.62,3884,12.68,620,90.77,0.79,67,-208,2017-03-13T04:42:39.859Z
2337,1100,0,0,395,1294,1022.51,3884,12.69,620,90.74,0.79,76,-197,2017-03-13T04:36:44.870Z
2337,1100,0,0,394,1296,1022.59,3884,12.69,620,90.75,0.79,73,-205,2017-03-13T04:30:37.644Z
2337,1100,0,0,393,1288,1022.62,3880,12.73,620,90.68,0.79,72,-202,2017-03-13T04:24:34.143Z
2337,1100,0,0,392,1307,1022.54,3884,12.74,620,90.64,0.79,68,-200,2017-03-13T04:18:33.793Z
2334,1100,0,0,391,1292,1022.49,3875,12.76,620,90.64,0.79,67,-200,2017-03-13T04:12:31.227Z
2332,1100,0,0,390,1289,1022.44,3884,12.77,620,90.62,0.79,72,-205,2017-03-13T04:06:28.490Z
2332,1100,0,0,389,1292,1022.53,3884,12.77,620,90.61,0.79,71,-200,2017-03-13T04:00:35.305Z
2332,1100,0,0,388,1292,1022.57,3884,12.81,620,90.58,0.79,71,-204,2017-03-13T03:54:26.035Z
2332,1100,0,0,387,1297,1022.53,3884,12.82,620,90.6,0.79,71,-194,2017-03-13T03:48:24.257Z
2332,1100,0,0,386,1288,1022.46,3884,12.85,620,90.6,0.79,71,-199,2017-03-13T03:42:23.181Z
2332,1100,0,0,383,1291,1022.34,3884,12.88,620,90.51,0.79,68,-200,2017-03-13T03:24:18.708Z
2326,1100,0,0,382,1297,1022.32,3884,12.89,620,90.47,0.79,76,-200,2017-03-13T03:18:21.029Z
2326,1100,0,0,381,1295,1022.28,3884,12.93,620,90.43,0.79,52,-208,2017-03-13T03:12:14.616Z
2326,1100,0,0,379,1291,1022.09,3884,12.97,620,90.39,0.79,56,-205,2017-03-13T03:00:13.948Z
2323,1100,0,0,378,1287,1021.85,3884,12.99,620,90.36,0.79,55,-207,2017-03-13T02:54:11.158Z
2320,1100,0,0,377,1291,1021.87,3884,13.02,620,90.16,0.79,70,-205,2017-03-13T02:48:10.167Z
2320,1100,0,0,376,1288,1021.85,3889,13.01,620,90.16,0.79,56,-205,2017-03-13T02:42:09.474Z
2320,1100,0,0,375,1284,1021.89,3884,13.04,620,90.16,0.79,51,-208,2017-03-13T02:36:07.016Z
2317,1100,0,0,374,1283,1021.89,3884,13.08,620,90.09,0.79,56,-202,2017-03-13T02:30:06.488Z
2317,1100,0,0,373,1286,1021.87,3884,13.09,620,90.05,0.79,57,-208,2017-03-13T02:24:05.654Z
2320,1100,0,0,372,1283,1021.9,3884,13.12,620,90.01,0.79,56,-208,2017-03-13T02:18:04.283Z
2314,1100,0,0,371,1299,1021.9,3884,13.12,520,89.96,0.79,76,-205,2017-03-13T02:12:04.379Z
2314,1100,0,0,370,1287,1021.82,3884,13.13,620,89.89,0.79,51,-205,2017-03-13T02:06:01.575Z
2311,1100,0,0,369,1291,1021.82,3884,13.15,620,89.98,0.79,51,-202,2017-03-13T01:59:59.848Z
2311,1100,0,0,368,1295,1021.76,3884,13.18,620,89.91,0.79,71,-200,2017-03-13T01:53:59.401Z
2308,1100,0,0,367,1296,1021.83,3884,13.19,620,89.84,0.79,71,-202,2017-03-13T01:47:58.274Z
2311,1100,0,0,366,1286,1021.71,3884,13.24,620,89.69,0.79,71,-200,2017-03-13T01:41:57.279Z
2305,1100,0,0,365,1291,1021.76,3884,13.24,620,89.67,0.79,52,-208,2017-03-13T01:35:55.936Z
2299,1100,0,0,364,1284,1021.7,3889,13.26,620,89.42,0.79,49,-207,2017-03-13T01:29:54.877Z
2299,1100,0,0,363,1276,1021.69,3884,13.29,620,89.22,0.79,55,-200,2017-03-13T01:23:53.569Z
2296,1100,0,0,362,1287,1021.65,3884,13.3,620,89.15,0.79,55,-208,2017-03-13T01:17:53.373Z
2299,1100,0,0,361,1283,1021.55,3884,13.32,620,89.11,0.79,72,-201,2017-03-13T01:11:51.978Z
2299,1100,0,0,359,1278,1021.5,3884,13.36,520,89.04,0.79,71,-201,2017-03-13T00:59:49.379Z
2299,1100,0,0,358,1281,1021.46,3884,13.39,620,88.97,0.79,49,-205,2017-03-13T00:53:48.945Z
2293,1100,0,0,357,1278,1021.31,3884,13.41,620,88.95,0.79,54,-202,2017-03-13T00:47:48.632Z
2293,1100,0,0,356,1279,1021.24,3884,13.43,620,88.93,0.79,52,-200,2017-03-13T00:41:53.217Z
2293,1100,0,0,355,1276,1021.2,3884,13.44,620,88.97,0.79,55,-202,2017-03-13T00:35:46.030Z
2296,1100,0,0,354,1283,1020.98,3884,13.48,620,88.94,0.79,76,-204,2017-03-13T00:29:45.719Z
2293,1100,0,0,353,1276,1020.85,3889,13.51,620,88.91,0.79,49,-202,2017-03-13T00:23:44.491Z
2291,1100,0,0,352,1284,1020.8,3884,13.54,620,88.82,0.79,72,-193,2017-03-13T00:17:43.866Z
2293,1100,0,0,351,1278,1020.66,3884,13.54,620,88.84,0.79,54,-210,2017-03-13T00:11:43.354Z
2291,1100,0,0,350,1283,1020.52,3889,13.57,620,88.73,0.79,55,-207,2017-03-13T00:05:47.163Z
2291,1100,0,0,349,1284,1020.43,3884,13.58,620,88.77,0.79,51,-205,2017-03-12T23:59:42.406Z
2288,1100,0,0,348,1286,1020.45,3884,13.62,620,88.62,0.79,55,-208,2017-03-12T23:53:41.610Z
2288,1100,0,0,347,1278,1020.44,3884,13.63,620,88.67,0.79,56,-205,2017-03-12T23:47:42.786Z
2291,1100,0,0,346,1276,1020.4,3884,13.66,620,88.69,0.79,71,-205,2017-03-12T23:41:40.505Z
2285,1100,0,0,344,1270,1020.2,3884,13.72,620,88.69,0.79,48,-205,2017-03-12T23:29:40.037Z
2288,1100,0,0,343,1276,1020.2,3884,13.74,620,88.67,0.79,48,-205,2017-03-12T23:23:43.352Z
2282,1100,0,0,342,1267,1020.18,3884,13.77,620,88.53,0.79,56,-205,2017-03-12T23:17:38.397Z
2282,1100,0,0,341,1278,1020.06,3884,13.8,620,88.58,0.79,49,-208,2017-03-12T23:11:40.512Z
2282,1100,0,0,340,1274,1020.1,3884,13.83,620,88.53,0.79,51,-210,2017-03-12T23:05:39.426Z
2279,1100,0,0,339,1281,1019.98,3884,13.86,620,88.52,0.79,54,-205,2017-03-12T22:59:37.774Z
2282,1100,0,0,338,1272,1019.97,3884,13.9,620,88.42,0.79,56,-205,2017-03-12T22:53:38.088Z
2279,1100,0,0,337,1276,1019.82,3884,13.91,520,88.55,0.79,51,-208,2017-03-12T22:47:38.460Z
2279,1100,0,0,336,1286,1019.67,3889,13.92,620,88.29,0.79,51,-202,2017-03-12T22:41:40.530Z
2270,1100,0,0,335,1264,1019.56,3884,13.95,620,88.17,0.79,52,-208,2017-03-12T22:35:44.672Z
2276,1001100,0,0,334,1283,1019.51,3884,13.98,620,88.13,0.79,71,-199,2017-03-12T22:29:36.709Z
2264,1100,0,0,333,1264,1019.38,3884,14,620,88.02,0.79,54,-208,2017-03-12T22:23:36.795Z
2261,1100,0,0,332,1270,1019.36,3884,14.02,620,87.91,0.79,51,-208,2017-03-12T22:17:36.337Z
2264,1100,0,0,331,1276,1019.3,3884,14.03,520,87.68,0.79,51,-208,2017-03-12T22:11:37.333Z
2255,1100,0,0,330,1272,1019.17,3884,14.03,620,87.5,0.79,51,-208,2017-03-12T22:05:47.411Z
2247,1100,0,0,329,1279,1018.97,3884,14.04,620,87.08,0.79,48,-209,2017-03-12T21:59:36.701Z
2241,1100,0,0,328,1272,1018.82,3884,14.04,620,86.1,0.79,46,-208,2017-03-12T21:53:35.793Z
2232,1100,0,0,327,1272,1018.75,3884,14.02,620,85.23,0.79,40,-209,2017-03-12T21:47:37.157Z
2232,1100,0,0,326,1267,1018.67,3884,14.01,620,84.85,0.79,46,-208,2017-03-12T21:41:39.599Z
2232,1100,0,0,325,1268,1018.66,3884,14.03,620,84.93,0.79,43,-208,2017-03-12T21:35:37.881Z
2232,1100,0,0,324,1263,1018.67,3884,14.05,620,85.07,0.79,44,-212,2017-03-12T21:29:35.154Z
2232,1100,0,0,323,1268,1018.54,3889,14.09,620,85.2,0.79,48,-208,2017-03-12T21:23:34.602Z
2238,1100,0,0,322,1278,1018.48,3884,14.12,620,85.4,0.79,47,-205,2017-03-12T21:17:41.760Z
2244,1100,0,0,321,1264,1018.4,3884,14.14,520,85.85,0.79,46,-210,2017-03-12T21:11:34.475Z
2244,1100,0,0,320,1251,1018.25,3884,14.13,620,86.01,0.79,41,-199,2017-03-12T21:05:38.258Z
2235,1100,0,0,319,1260,1018.19,3884,14.12,520,85.65,0.79,43,-210,2017-03-12T20:59:33.729Z
2235,1100,0,0,318,1262,1018.13,3884,14.06,520,85.02,0.79,47,-208,2017-03-12T20:53:34.483Z
2232,1100,0,0,317,1265,1018,3884,14.11,620,85.31,0.79,44,-209,2017-03-12T20:47:38.445Z
2232,1100,0,0,316,1276,1017.87,3884,14.12,520,85.4,0.79,48,-207,2017-03-12T20:41:39.691Z
2229,1100,0,0,315,1264,1017.82,3884,14.12,620,85.24,0.79,43,-216,2017-03-12T20:35:36.667Z
2223,1100,0,0,314,1262,1017.69,3884,14.12,620,84.71,0.79,44,-212,2017-03-12T20:29:32.533Z
2220,1100,0,0,313,1273,1017.69,3884,14.12,520,84.37,0.79,47,-208,2017-03-12T20:23:31.802Z
2217,1100,0,0,312,1268,1017.66,3884,14.15,620,84.35,0.79,41,-209,2017-03-12T20:17:34.860Z
2217,1100,0,0,311,1264,1017.41,3884,14.18,620,84.28,0.79,44,-210,2017-03-12T20:11:31.479Z
2217,1100,0,0,310,1264,1017.36,3884,14.2,520,84.24,0.79,44,-212,2017-03-12T20:05:36.368Z
2223,1100,0,0,309,1262,1017.32,3889,14.22,620,84.11,0.79,48,-209,2017-03-12T19:59:36.506Z
2220,1100,0,0,308,1273,1017.26,3884,14.25,620,83.99,0.79,48,-210,2017-03-12T19:53:30.878Z
2217,1100,0,0,307,1260,1017.11,3884,14.27,620,83.83,0.79,41,-210,2017-03-12T19:47:30.611Z
2217,1100,0,0,306,1270,1017.05,3884,14.29,620,83.63,0.79,43,-215,2017-03-12T19:41:30.135Z
2211,1100,0,0,304,1263,1016.74,3884,14.35,620,83.59,0.79,44,-213,2017-03-12T19:29:28.947Z
2220,1100,0,0,303,1263,1016.69,3889,14.4,620,83.61,0.79,44,-210,2017-03-12T19:23:36.955Z
2217,1100,0,0,302,1267,1016.61,3884,14.43,520,83.63,0.79,40,-209,2017-03-12T19:17:30.121Z
2217,1100,0,0,301,1260,1016.51,3889,14.47,620,83.61,0.79,44,-215,2017-03-12T19:11:29.508Z
2214,1100,0,0,300,1265,1016.29,3884,14.5,620,83.61,0.79,46,-216,2017-03-12T19:05:31.194Z
2211,1100,0,0,299,1256,1016.14,3889,14.52,620,83.56,0.79,46,-212,2017-03-12T18:59:31.018Z
2217,1100,0,0,298,1273,1016.06,3889,14.58,520,83.54,0.79,44,-208,2017-03-12T18:53:28.609Z
2211,1100,0,0,297,1257,1015.99,3884,14.64,620,83.47,0.79,39,-210,2017-03-12T18:47:29.605Z
2214,1100,0,0,296,1267,1015.89,3889,14.72,620,83.45,0.79,39,-212,2017-03-12T18:41:29.237Z
2217,1100,0,0,295,1263,1015.77,3889,14.72,520,83.34,0.79,44,-216,2017-03-12T18:35:39.713Z
2211,1100,1,0,294,1264,1015.63,3884,14.73,620,83.23,0.79,36,-208,2017-03-12T18:29:29.568Z
2208,1100,9,0,292,1260,1015.33,3889,14.74,620,83.11,0.79,41,-210,2017-03-12T18:17:30.290Z
2206,1100,33,0,291,1256,1015.24,3889,14.81,620,83,0.79,40,-212,2017-03-12T18:11:32.063Z
2211,1100,41,0,290,1262,1015.05,3884,14.86,620,82.84,0.79,38,-208,2017-03-12T18:05:33.451Z
2208,1100,70,0,289,1260,1014.9,3884,14.89,520,82.72,0.79,40,-209,2017-03-12T17:59:31.023Z
2206,1100,84,0,288,1257,1014.78,3889,14.92,620,82.63,0.79,35,-205,2017-03-12T17:53:31.587Z
2208,1100,113,0,287,1270,1014.59,3884,14.96,620,82.5,0.79,48,-213,2017-03-12T17:47:31.869Z
2203,1100,168,0,286,1260,1014.58,3889,15.01,620,82.41,0.79,39,-212,2017-03-12T17:41:32.544Z
2208,1100,187,0,285,1265,1014.46,3884,15.03,620,82.34,0.79,40,-207,2017-03-12T17:35:33.167Z
2203,1100,219,0,284,1272,1014.24,3884,15.07,620,82.21,0.79,46,-212,2017-03-12T17:29:39.162Z
2203,1100,207,0,283,1260,1014.23,3884,15.07,520,82.25,0.79,40,-212,2017-03-12T17:23:34.638Z
2208,1100,107,0,282,1260,1014.1,3884,15.1,520,82.16,0.79,39,-212,2017-03-12T17:17:35.624Z
2206,1100,95,0,281,1260,1014.04,3884,15.15,620,81.95,0.79,43,-215,2017-03-12T17:11:42.277Z
2203,1100,238,0,279,1262,1013.75,3884,15.26,620,81.55,0.79,41,-208,2017-03-12T16:59:37.839Z
2206,1100,332,0,278,1252,1013.61,3889,15.29,620,81.41,0.79,40,-213,2017-03-12T16:53:39.623Z
2197,1100,255,0,277,1265,1013.51,3884,15.31,620,81.24,0.79,39,-213,2017-03-12T16:47:39.884Z
2206,1100,121,0,276,1254,1013.51,3884,15.34,620,81.1,0.79,41,-210,2017-03-12T16:41:40.784Z
2197,1100,187,0,275,1260,1013.3,3889,15.38,620,80.92,0.79,40,-216,2017-03-12T16:35:43.912Z
2194,1100,203,0,274,1265,1013.12,3889,15.41,620,80.76,0.79,40,-221,2017-03-12T16:29:43.609Z
2197,1100,91,0,272,1264,1012.89,3889,15.52,620,80.42,0.79,43,-212,2017-03-12T16:17:48.598Z
2191,1100,130,0,271,1259,1012.76,3884,15.58,620,80.17,0.79,41,-210,2017-03-12T16:11:46.456Z
2191,1100,272,0,270,1259,1012.69,3884,15.65,620,79.94,0.79,39,-217,2017-03-12T16:05:50.438Z
2191,1100,234,0,269,1257,1012.7,3889,15.69,520,79.76,0.79,39,-208,2017-03-12T15:59:50.623Z
2191,1100,233,0,268,1255,1012.53,3889,15.76,620,79.58,0.79,40,-212,2017-03-12T15:53:52.571Z
2191,1100,345,0,267,1264,1012.43,3889,15.84,520,79.4,0.79,41,-215,2017-03-12T15:47:56.036Z
2188,1100,594,0,266,1262,1012.33,3889,15.92,520,79.2,0.79,43,-210,2017-03-12T15:41:55.407Z
2194,1100,375,0,265,1256,1012.3,3884,15.95,620,79.15,0.79,39,-212,2017-03-12T15:35:57.009Z
2191,1100,405,0,264,1255,1012.23,3889,16,620,79.08,0.79,39,-213,2017-03-12T15:29:59.478Z
2188,1100,633,0,263,1259,1012.19,3884,16.05,620,79.06,0.79,44,-217,2017-03-12T15:24:05.485Z
2194,1100,706,0,262,1255,1012.12,3884,16.12,620,79,0.79,38,-215,2017-03-12T15:18:04.387Z
2191,1100,383,0,261,1262,1012.09,3884,16.13,520,79.02,0.79,43,-212,2017-03-12T15:12:06.906Z
2191,1100,948,0,260,1257,1011.96,3884,16.23,520,78.99,0.79,40,-214,2017-03-12T15:06:08.443Z
2191,1100,663,0,259,1260,1011.87,3889,16.24,520,79.12,0.79,43,-215,2017-03-12T15:00:12.494Z
2194,1100,475,0,258,1254,1011.87,3884,16.31,620,79.22,0.79,44,-208,2017-03-12T14:54:14.764Z
2200,1100,844,0,257,1267,1011.86,3884,16.42,520,79.24,0.79,41,-212,2017-03-12T14:48:17.249Z
2200,1100,660,0,256,1265,1011.86,3884,16.42,520,79.43,0.79,46,-215,2017-03-12T14:42:26.017Z
2194,1100,535,0,255,1260,1011.94,3884,16.49,520,79.12,0.79,39,-215,2017-03-12T14:36:23.520Z
2200,1100,999,0,253,1256,1011.58,3884,16.64,520,78.77,0.79,46,-217,2017-03-12T14:24:33.874Z
2197,1100,999,0,252,1265,1011.63,3884,16.63,620,78.71,0.79,44,-213,2017-03-12T14:18:37.738Z
2203,1100,999,0,251,1272,1011.62,3884,16.69,620,78.68,0.79,43,-212,2017-03-12T14:12:36.660Z
2197,1100,999,0,250,1265,1011.54,3884,16.68,520,78.87,0.79,44,-209,2017-03-12T14:06:40.527Z
2200,1100,853,0,248,1260,1011.54,3884,16.62,520,79.15,0.79,44,-209,2017-03-12T13:54:47.544Z
2200,1100,973,0,247,1278,1011.46,3884,16.63,620,79.22,0.79,48,-212,2017-03-12T13:48:50.285Z
2206,1100,999,0,245,1264,1011.25,3884,16.71,620,79.02,0.79,44,-216,2017-03-12T13:36:57.467Z
2200,11100,635,0,244,1264,1011.28,3889,16.78,520,78.77,0.79,39,-213,2017-03-12T13:31:01.066Z
2203,1100,840,0,243,1263,1010.98,3884,16.88,520,78.46,0.79,48,-215,2017-03-12T13:25:06.219Z
2206,1100,745,0,242,1264,1011.03,3884,16.99,620,78.33,0.79,39,-208,2017-03-12T13:19:08.356Z
2208,1100,999,0,241,1257,1010.82,3884,17.14,620,78.37,0.79,39,-215,2017-03-12T13:13:13.472Z
2208,1100,999,0,240,1267,1010.6,3884,17.01,520,78.92,0.79,44,-208,2017-03-12T13:07:18.595Z
2208,1100,999,0,239,1273,1010.42,3884,17.02,520,79.08,0.79,44,-213,2017-03-12T13:01:21.504Z
2206,1100,999,0,238,1271,1010.48,3884,16.87,620,79.51,0.79,44,-212,2017-03-12T12:55:26.867Z
2217,1100,999,0,236,1272,1010.35,3884,16.95,520,79.66,0.79,46,-212,2017-03-12T12:43:35.490Z
2217,1100,999,0,235,1273,1010.38,3889,16.94,520,79.75,0.79,48,-207,2017-03-12T12:37:40.355Z
2223,1100,999,0,234,1271,1010.43,3884,16.91,620,80.05,0.79,40,-208,2017-03-12T12:31:42.651Z
2217,1100,999,0,233,1267,1010.38,3884,16.89,620,80.27,0.79,47,-210,2017-03-12T12:25:47.409Z
2223,1100,999,0,231,1273,1010.11,3884,16.68,520,80.98,0.79,51,-210,2017-03-12T12:13:55.914Z
2217,1100,738,0,229,1276,1010.1,3889,16.55,520,80.87,0.79,46,-208,2017-03-12T12:02:04.118Z
2217,1100,623,0,228,1263,1010.14,3889,16.59,620,80.37,0.79,41,-212,2017-03-12T11:56:07.800Z
2217,1100,753,0,227,1268,1009.95,3889,16.62,520,79.83,0.79,50,-220,2017-03-12T11:50:12.311Z
2220,1100,800,0,226,1275,1010.05,3889,16.66,520,79.85,0.79,48,-208,2017-03-12T11:44:19.232Z
2223,1100,999,0,225,1264,1010.07,3889,16.68,520,80.01,0.79,49,-212,2017-03-12T11:38:17.010Z
2226,1001100,843,0,224,1271,1010.02,3889,16.68,620,80.5,0.79,48,-208,2017-03-12T11:32:21.163Z
2247,1100,999,0,222,1279,1009.98,3884,16.76,620,81.23,0.79,51,-210,2017-03-12T11:20:29.613Z
2247,1100,999,0,221,1279,1009.92,3884,16.65,520,81.79,0.79,51,-207,2017-03-12T11:14:40.534Z
2252,1100,999,0,220,1272,1009.94,3884,16.47,520,82.3,0.79,51,-205,2017-03-12T11:08:38.271Z
2258,1100,999,0,219,1279,1010.01,3889,16.46,520,82.54,0.79,48,-204,2017-03-12T11:02:49.485Z
2261,1100,842,0,217,1281,1009.76,3884,16.21,620,83.43,0.79,54,-208,2017-03-12T10:50:50.105Z
2264,1100,860,0,216,1276,1009.65,3889,16.13,520,83.81,0.79,72,-201,2017-03-12T10:44:52.113Z
2270,1100,481,0,215,1270,1009.62,3889,16.13,620,84.08,0.79,56,-207,2017-03-12T10:38:58.132Z
2276,1100,743,0,214,1286,1009.65,3889,16.15,520,84.3,0.79,54,-207,2017-03-12T10:32:59.569Z
2276,1100,999,0,213,1276,1009.57,3884,16.04,620,84.62,0.79,52,-205,2017-03-12T10:27:01.777Z
2270,1100,794,0,212,1273,1009.46,3889,15.98,520,84.74,0.79,49,-209,2017-03-12T10:21:05.840Z
2273,1001100,640,0,211,1286,1009.47,3884,16.04,520,84.76,0.79,55,-205,2017-03-12T10:15:07.473Z
2285,1100,995,0,210,1287,1009.52,3889,16.09,620,84.85,0.79,72,-197,2017-03-12T10:09:11.019Z
2285,1100,999,0,209,1288,1009.45,3884,16.06,520,85.14,0.79,56,-200,2017-03-12T10:03:15.128Z
2291,1100,999,0,208,1284,1009.5,3889,16.03,520,85.48,0.79,59,-205,2017-03-12T09:57:18.107Z
2296,1100,999,0,207,1287,1009.56,3889,15.98,520,85.84,0.79,75,-201,2017-03-12T09:51:21.078Z
2299,1100,999,0,206,1284,1009.51,3889,15.91,520,86.16,0.79,55,-207,2017-03-12T09:45:24.414Z
2302,1100,784,0,205,1287,1009.53,3889,15.87,620,86.54,0.79,76,-196,2017-03-12T09:39:28.697Z
2311,1100,999,0,204,1299,1009.61,3884,15.95,520,86.59,0.79,73,-205,2017-03-12T09:33:31.632Z
2317,1100,999,0,203,1295,1009.6,3884,15.88,520,87.08,0.79,70,-201,2017-03-12T09:27:39.225Z
2326,1100,999,0,202,1304,1009.62,3884,15.82,520,87.55,0.79,79,-201,2017-03-12T09:21:37.178Z
2340,1001100,999,0,200,1300,1009.58,3889,15.69,520,88.23,0.79,76,-200,2017-03-12T09:09:43.847Z
2329,1100,999,0,199,1297,1009.57,3889,15.54,520,88.4,0.79,71,-205,2017-03-12T09:03:47.638Z
2326,1100,622,0,198,1292,1009.46,3889,15.49,520,88.25,0.79,75,-200,2017-03-12T08:57:50.011Z
2326,1100,693,0,197,1296,1009.4,3889,15.44,520,88.18,0.79,76,-200,2017-03-12T08:51:52.710Z
2326,1100,726,0,196,1308,1009.48,3889,15.44,520,87.98,0.79,79,-200,2017-03-12T08:45:55.765Z
2326,1100,607,0,195,1299,1009.52,3889,15.4,620,88.09,0.79,79,-202,2017-03-12T08:39:57.556Z
2326,1100,523,0,194,1295,1009.47,3889,15.38,520,87.94,0.79,71,-205,2017-03-12T08:34:00.256Z
2332,1100,788,0,193,1299,1009.45,3889,15.37,520,87.94,0.79,76,-202,2017-03-12T08:28:03.186Z
2337,1100,665,0,192,1303,1009.62,3884,15.38,520,88.09,0.79,83,-205,2017-03-12T08:22:04.499Z
2346,1100,675,0,191,1297,1009.68,3889,15.28,620,88.45,0.79,75,-201,2017-03-12T08:16:12.173Z
2343,1100,606,0,190,1295,1009.7,3889,15.22,520,88.58,0.79,78,-200,2017-03-12T08:10:10.864Z
2346,1100,616,0,189,1303,1009.61,3889,15.17,520,88.85,0.79,73,-202,2017-03-12T08:04:11.387Z
2346,1100,438,0,188,1284,1009.65,3889,15.08,520,89.08,0.79,73,-202,2017-03-12T07:58:13.086Z
2346,1100,200,0,187,1294,1009.55,3889,15.08,520,89.13,0.79,78,-208,2017-03-12T07:52:14.654Z
2349,1100,174,0,186,1296,1009.56,3889,15.07,520,89.15,0.79,72,-201,2017-03-12T07:46:16.346Z
2349,1100,161,0,185,1303,1009.48,3889,15.07,620,89.19,0.79,71,-201,2017-03-12T07:40:25.508Z
2349,1100,139,0,184,1292,1009.33,3889,15.06,520,89.26,0.79,76,-208,2017-03-12T07:34:19.650Z
2352,1100,205,0,183,1291,1009.28,3893,15.07,620,89.28,0.79,72,-205,2017-03-12T07:28:21.576Z
2352,1100,189,0,182,1295,1009.24,3889,15.06,520,89.39,0.79,68,-200,2017-03-12T07:22:32.448Z
2355,1100,110,0,181,1292,1009.23,3889,15.06,520,89.42,0.79,71,-202,2017-03-12T07:16:25.035Z
2358,1100,150,0,180,1295,1009.18,3889,15.06,520,89.46,0.79,64,-202,2017-03-12T07:10:27.321Z
2358,1100,153,0,179,1295,1009.17,3893,15.05,520,89.46,0.79,78,-201,2017-03-12T07:04:27.594Z
2358,1100,60,0,178,1297,1009.03,3884,15.05,620,89.51,0.79,65,-204,2017-03-12T06:58:35.571Z
2358,1100,53,0,177,1287,1009.04,3889,15.05,520,89.55,0.79,68,-201,2017-03-12T06:52:31.872Z
2361,1100,26,0,174,1294,1008.79,3889,15.05,620,89.6,0.79,73,-207,2017-03-12T06:34:37.365Z
2361,1100,8,0,173,1289,1008.7,3889,15.06,620,89.6,0.79,71,-207,2017-03-12T06:28:42.508Z
2361,1100,6,0,172,1295,1008.71,3889,15.06,520,89.66,0.79,72,-200,2017-03-12T06:22:39.880Z
2361,1100,4,0,171,1299,1008.57,3893,15.07,620,89.64,0.79,71,-200,2017-03-12T06:16:43.674Z
2361,1100,1,0,170,1295,1008.48,3893,15.08,520,89.64,0.79,68,-201,2017-03-12T06:10:43.885Z
2361,1100,0,0,169,1289,1008.47,3893,15.08,620,89.64,0.79,71,-201,2017-03-12T06:04:44.665Z
2361,1100,0,0,168,1255,1008.39,3893,15.09,520,89.68,0.79,60,-208,2017-03-12T05:58:49.273Z
2364,1100,0,0,167,1304,1008.41,3893,15.1,620,89.71,0.79,73,-200,2017-03-12T05:52:48.834Z
2370,1100,0,0,166,1272,1008.35,3889,15.13,620,89.71,0.79,62,-207,2017-03-12T05:46:50.371Z
2367,1100,0,0,165,1287,1008.33,3893,15.14,520,89.71,0.79,67,-208,2017-03-12T05:40:54.183Z
2367,1100,0,0,164,1279,1008.42,3889,15.14,520,89.75,0.79,67,-208,2017-03-12T05:34:54.663Z
2370,1100,0,0,163,1311,1008.49,3889,15.15,620,89.8,0.79,76,-201,2017-03-12T05:28:55.826Z
2370,1100,0,0,162,1287,1008.51,3889,15.15,620,89.84,0.79,70,-205,2017-03-12T05:22:58.059Z
2370,1100,0,0,160,1295,1008.46,3893,15.17,520,89.91,0.79,76,-202,2017-03-12T05:11:04.979Z
2373,1100,0,0,159,1292,1008.49,3889,15.17,520,89.96,0.79,67,-200,2017-03-12T05:05:04.187Z
2373,1100,0,0,158,1292,1008.43,3889,15.18,520,89.96,0.79,71,-200,2017-03-12T04:59:05.821Z
2373,1100,0,0,157,1276,1008.45,3893,15.2,620,89.98,0.79,64,-210,2017-03-12T04:53:08.079Z
2375,1100,0,0,156,1295,1008.38,3893,15.19,520,90.03,0.79,64,-200,2017-03-12T04:47:10.826Z
2375,1100,0,0,155,1295,1008.38,3889,15.2,520,90.03,0.79,71,-205,2017-03-12T04:41:11.754Z
2375,1100,0,0,154,1291,1008.38,3889,15.21,520,90.03,0.79,63,-201,2017-03-12T04:35:13.776Z
2378,1100,0,0,153,1283,1008.45,3889,15.22,520,90.05,0.79,65,-201,2017-03-12T04:29:17.355Z
2378,1100,0,0,152,1295,1008.41,3889,15.23,520,90.07,0.79,71,-205,2017-03-12T04:23:18.430Z
2381,1100,0,0,151,1283,1008.41,3889,15.23,620,90.13,0.79,63,-208,2017-03-12T04:17:25.973Z
2381,1100,0,0,150,1298,1008.44,3889,15.25,520,90.18,0.79,71,-201,2017-03-12T04:11:22.224Z
2384,1100,0,0,148,1279,1008.33,3893,15.25,620,90.34,0.79,64,-205,2017-03-12T03:59:27.156Z
2387,1100,0,0,147,1304,1008.32,3893,15.25,620,90.41,0.79,71,-200,2017-03-12T03:53:34.302Z
2387,1100,0,0,146,1299,1008.44,3893,15.25,620,90.48,0.79,72,-205,2017-03-12T03:47:32.020Z
2387,1100,0,0,145,1286,1008.52,3889,15.28,520,90.5,0.79,63,-205,2017-03-12T03:41:33.939Z
2390,1100,0,0,144,1286,1008.49,3893,15.28,520,90.52,0.79,67,-205,2017-03-12T03:35:36.786Z
2390,1100,0,0,143,1288,1008.49,3884,15.3,620,90.5,0.79,71,-208,2017-03-12T03:29:37.890Z
2390,1100,0,0,142,1284,1008.52,3893,15.31,620,90.54,0.79,59,-205,2017-03-12T03:23:40.026Z
2390,1100,0,0,141,1289,1008.53,3893,15.3,620,90.59,0.79,65,-199,2017-03-12T03:17:46.971Z
2390,1100,0,0,140,1295,1008.51,3889,15.32,620,90.59,0.79,71,-205,2017-03-12T03:11:44.808Z
2390,1100,0,0,139,1308,1008.58,3889,15.33,520,90.57,0.79,71,-200,2017-03-12T03:05:47.637Z
2390,1100,0,0,138,1288,1008.7,3893,15.34,520,90.52,0.79,64,-210,2017-03-12T02:59:49.810Z
2390,1100,0,0,137,1295,1008.72,3893,15.35,620,90.48,0.79,68,-200,2017-03-12T02:53:51.865Z
2390,1100,0,0,136,1288,1008.67,3893,15.35,520,90.45,0.79,63,-205,2017-03-12T02:47:54.000Z
2390,1100,0,0,134,1287,1008.71,3893,15.36,520,90.41,0.79,72,-210,2017-03-12T02:35:59.362Z
2390,1100,0,0,133,1286,1008.74,3893,15.37,620,90.38,0.79,63,-200,2017-03-12T02:30:01.590Z
2393,1100,0,0,132,1287,1008.76,3893,15.38,620,90.41,0.79,67,-204,2017-03-12T02:24:03.243Z
2393,1100,0,0,131,1299,1008.77,3893,15.38,520,90.48,0.79,66,-201,2017-03-12T02:18:05.986Z
2396,1101100,0,0,130,1296,1008.87,3893,15.38,520,90.54,0.79,65,-201,2017-03-12T02:12:09.515Z
2446,1111100,0,0,129,1228,1009.08,3893,15.38,620,90.61,0.79,62,-200,2017-03-12T02:06:13.121Z
2534,101100,0,0,128,1315,1009.51,3893,15.39,620,90.62,0.79,88,-177,2017-03-12T02:00:14.642Z
2540,1100,0,0,127,1120,1009.66,3889,15.39,520,90.68,0.79,60,-149,2017-03-12T01:54:17.248Z
2542,1100,0,0,126,1132,1009.66,3893,15.41,520,90.68,0.79,57,-146,2017-03-12T01:48:21.977Z
2545,1100,0,0,125,1127,1009.66,3893,15.43,520,90.74,0.79,59,-151,2017-03-12T01:42:24.008Z
2548,1100,0,0,124,1127,1009.72,3893,15.44,620,90.79,0.79,62,-156,2017-03-12T01:36:33.390Z
2554,1100,0,0,123,1123,1009.89,3893,15.45,520,90.87,0.79,55,-144,2017-03-12T01:30:36.990Z
2560,1100,0,0,122,1128,1009.96,3893,15.47,620,90.93,0.79,57,-149,2017-03-12T01:24:35.087Z
2563,1100,0,0,121,1129,1009.98,3893,15.47,520,91.01,0.79,60,-153,2017-03-12T01:18:38.081Z
2566,1100,0,0,120,1128,1010.09,3893,15.47,520,91.1,0.79,56,-156,2017-03-12T01:12:40.368Z
2572,1100,0,0,119,1126,1010.11,3893,15.48,520,91.16,0.79,60,-156,2017-03-12T01:06:45.119Z
2578,1100,0,0,118,1132,1010.2,3893,15.49,520,91.25,0.79,56,-154,2017-03-12T01:00:48.804Z
2583,1100,0,0,117,1136,1010.3,3893,15.49,620,91.32,0.79,60,-153,2017-03-12T00:54:56.484Z
2592,1100,0,0,116,1136,1010.48,3893,15.5,620,91.44,0.79,55,-155,2017-03-12T00:49:00.928Z
2598,1100,0,0,115,1134,1010.51,3889,15.5,620,91.57,0.79,60,-151,2017-03-12T00:42:59.715Z
2607,1100,0,0,114,1131,1010.58,3893,15.51,520,91.64,0.79,57,-153,2017-03-12T00:37:08.103Z
2613,1100,0,0,113,1139,1010.59,3893,15.53,620,91.74,0.79,59,-157,2017-03-12T00:31:06.648Z
2622,1100,0,0,112,1145,1010.57,3889,15.53,520,91.87,0.79,57,-148,2017-03-12T00:25:11.039Z
2630,1100,0,0,111,1148,1010.6,3893,15.53,620,92.02,0.79,60,-146,2017-03-12T00:19:20.403Z
2639,1001100,0,0,110,1148,1010.65,3893,15.55,620,92.15,0.79,63,-148,2017-03-12T00:13:20.909Z
2651,1001100,0,0,109,1144,1010.72,3893,15.55,520,92.34,0.79,59,-152,2017-03-12T00:07:24.588Z
2663,1100,0,0,108,1142,1010.87,3893,15.54,620,92.54,0.79,56,-148,2017-03-12T00:01:27.591Z
2683,1001100,0,0,106,1148,1010.78,3893,15.57,520,92.92,0.79,62,-148,2017-03-11T23:49:37.283Z
2698,1100,0,0,105,1148,1010.88,3893,15.55,520,93.12,0.79,62,-156,2017-03-11T23:43:41.561Z
2698,1100,0,0,104,1151,1010.94,3893,15.55,520,93.22,0.79,56,-148,2017-03-11T23:37:45.786Z
2701,1100,0,0,103,1151,1010.94,3893,15.53,620,93.37,0.79,60,-144,2017-03-11T23:31:51.825Z
2718,1001100,0,0,101,1147,1011.2,3893,15.52,520,93.76,0.79,62,-157,2017-03-11T23:19:59.198Z
2695,1001100,0,0,100,1144,1011.1,3893,15.53,520,93.95,0.79,62,-145,2017-03-11T23:14:09.221Z
2668,1001100,0,0,99,1144,1011.13,3893,15.49,520,93.8,0.79,57,-148,2017-03-11T23:08:08.656Z
2613,1100,0,0,98,1132,1011,3893,15.41,520,92.64,0.79,56,-152,2017-03-11T23:02:16.866Z
2619,1001100,0,0,97,1136,1011.07,3893,15.37,620,92.37,0.79,59,-146,2017-03-11T22:56:22.661Z
2630,1100,0,0,96,1136,1011.27,3893,15.38,520,92.68,0.79,59,-144,2017-03-11T22:50:23.223Z
2639,1100,0,0,95,1140,1011.36,3893,15.4,520,93.06,0.79,60,-149,2017-03-11T22:44:23.984Z
2639,1001100,0,0,94,1144,1011.37,3893,15.44,620,93.51,0.79,57,-145,2017-03-11T22:38:30.040Z
2625,1001100,0,0,93,1139,1011.36,3893,15.47,520,93.83,0.79,55,-156,2017-03-11T22:32:33.454Z
2575,1101100,0,0,92,1127,1011.31,3893,15.44,520,93.52,0.79,57,-160,2017-03-11T22:26:36.106Z
2528,101100,0,0,91,1312,1011.14,3897,15.32,620,91.34,0.79,91,-181,2017-03-11T22:20:40.994Z
2537,1100,0,0,90,1127,1011.22,3893,15.32,520,91.47,0.79,60,-148,2017-03-11T22:14:45.744Z
2545,1100,0,0,89,1126,1011.24,3893,15.33,520,91.65,0.79,59,-149,2017-03-11T22:08:51.475Z
2554,1100,0,0,88,1120,1011.29,3893,15.34,520,91.88,0.79,60,-144,2017-03-11T22:02:54.424Z
2563,1100,0,0,87,1126,1011.38,3893,15.34,520,92.14,0.79,58,-153,2017-03-11T21:56:56.685Z
2583,1100,0,0,85,1126,1011.43,3893,15.37,620,92.78,0.79,60,-153,2017-03-11T21:45:06.717Z
2586,1100,0,0,84,1131,1011.47,3897,15.38,520,93.19,0.79,60,-153,2017-03-11T21:39:05.307Z
2586,1001100,0,0,83,1128,1011.43,3897,15.4,520,93.54,0.79,57,-154,2017-03-11T21:33:09.313Z
2560,1001100,0,0,82,1118,1011.48,3893,15.44,520,93.8,0.79,56,-151,2017-03-11T21:27:12.511Z
2531,1111100,0,0,81,1118,1011.36,3893,15.4,620,93.23,0.79,57,-154,2017-03-11T21:21:14.911Z
2469,1100,0,0,80,1312,1011.06,3893,15.41,620,93.19,0.79,80,-189,2017-03-11T21:15:29.105Z
2463,1001100,0,0,79,1316,1011.11,3893,15.39,620,93.15,0.79,71,-184,2017-03-11T21:09:22.501Z
2452,1001100,0,0,78,1319,1010.98,3893,15.41,520,93.4,0.79,75,-185,2017-03-11T21:03:28.961Z
2405,1100,0,0,76,1300,1010.78,3893,15.37,620,92.42,0.79,67,-199,2017-03-11T20:51:29.992Z
2381,1001100,0,0,74,1303,1010.84,3897,15.36,520,92.14,0.79,72,-196,2017-03-11T20:39:34.762Z
2358,1001100,0,0,73,1295,1010.68,3893,15.32,520,91.54,0.79,73,-196,2017-03-11T20:33:36.498Z
2334,1001100,0,0,72,1294,1010.57,3893,15.3,520,90.87,0.79,86,-205,2017-03-11T20:27:39.849Z
2311,1001100,0,0,71,1284,1010.49,3897,15.25,520,89.58,0.79,62,-208,2017-03-11T20:21:41.005Z
2296,1100,0,0,70,1279,1010.36,3897,15.21,620,88.36,0.79,59,-204,2017-03-11T20:15:43.543Z
2293,1100,0,0,68,1267,1010.61,3897,15.2,520,88.13,0.79,57,-210,2017-03-11T20:03:53.255Z
2293,1100,0,0,67,1278,1010.74,3897,15.21,620,87.96,0.79,54,-205,2017-03-11T19:57:48.912Z
2293,1100,0,0,66,1279,1010.72,3897,15.21,620,87.96,0.79,76,-196,2017-03-11T19:51:50.422Z
2293,1100,0,0,64,1268,1010.91,3893,15.23,620,87.96,0.79,56,-208,2017-03-11T19:39:55.047Z
2293,1100,0,0,63,1278,1010.89,3897,15.24,620,87.98,0.79,48,-205,2017-03-11T19:33:56.580Z
2293,1100,0,0,62,1279,1011,3897,15.25,520,88.02,0.79,56,-209,2017-03-11T19:27:57.805Z
2296,1100,0,0,61,1272,1011.05,3893,15.26,520,88.04,0.79,73,-203,2017-03-11T19:22:00.976Z
2296,1100,0,0,60,1278,1011.12,3897,15.28,520,88.04,0.79,56,-211,2017-03-11T19:16:02.192Z
2296,1100,0,0,59,1264,1011.11,3897,15.3,620,88.04,0.79,54,-208,2017-03-11T19:10:04.254Z
2293,1100,0,0,58,1276,1011.11,3897,15.3,620,88.09,0.79,56,-209,2017-03-11T19:04:06.320Z
2293,1100,0,0,57,1270,1011.07,3897,15.32,620,88.07,0.79,51,-207,2017-03-11T18:58:13.144Z
2296,1100,0,0,56,1275,1011.18,3897,15.32,620,88.13,0.79,71,-201,2017-03-11T18:52:09.624Z
2293,1100,0,0,54,1276,1011.19,3893,15.37,620,88,0.79,56,-208,2017-03-11T18:40:19.788Z
2293,1100,0,0,53,1275,1011.16,3893,15.38,620,87.96,0.79,51,-208,2017-03-11T18:34:19.241Z
2293,1100,0,0,51,1268,1011.14,3893,15.39,620,87.91,0.79,51,-205,2017-03-11T18:22:21.156Z
2291,1100,1,0,50,1270,1011.15,3897,15.43,520,87.89,0.79,60,-208,2017-03-11T18:16:22.457Z
2296,1100,5,0,49,1272,1011.15,3897,15.44,620,87.73,0.79,54,-206,2017-03-11T18:10:24.122Z
2291,1100,12,0,47,1287,1011.15,3897,15.47,520,87.78,0.79,55,-212,2017-03-11T17:58:28.234Z
2293,1100,40,0,46,1272,1011.13,3897,15.51,620,87.8,0.79,70,-200,2017-03-11T17:52:30.056Z
2296,1100,55,0,45,1272,1011.2,3897,15.53,620,87.87,0.79,54,-208,2017-03-11T17:46:38.782Z
2296,1100,48,0,44,1270,1011.24,3893,15.57,520,87.94,0.79,54,-208,2017-03-11T17:40:36.269Z
2299,1100,52,0,43,1283,1011.27,3897,15.59,620,88,0.79,72,-201,2017-03-11T17:34:38.889Z
2299,1100,120,0,42,1284,1011.31,3897,15.62,520,88.13,0.79,76,-197,2017-03-11T17:28:42.056Z
2302,1100,151,0,41,1278,1011.26,3897,15.65,620,88.29,0.79,75,-200,2017-03-11T17:22:45.508Z
2305,1100,140,0,40,1284,1011.26,3893,15.67,620,88.52,0.79,79,-201,2017-03-11T17:16:53.425Z
2311,1100,113,0,39,1292,1011.3,3897,15.7,620,88.74,0.79,76,-201,2017-03-11T17:10:48.666Z
2314,1100,174,0,38,1287,1011.23,3897,15.74,520,88.99,0.79,71,-201,2017-03-11T17:04:48.916Z
2314,1100,136,0,37,1288,1011.2,3897,15.76,620,89.29,0.79,80,-209,2017-03-11T16:58:51.815Z
2317,1100,155,0,36,1288,1011.34,3897,15.81,620,89.69,0.79,72,-200,2017-03-11T16:52:58.182Z
2308,1001100,110,0,35,1275,1011.33,3893,15.87,620,89.8,0.79,56,-205,2017-03-11T16:46:56.184Z
2291,1001100,106,0,34,1278,1011.2,3897,15.87,520,88.61,0.79,56,-212,2017-03-11T16:41:00.082Z
2273,1100,116,0,33,1270,1011.24,3897,15.87,620,87.6,0.79,75,-196,2017-03-11T16:35:02.738Z
2273,1100,124,0,32,1276,1011.32,3897,15.87,520,87.15,0.79,54,-208,2017-03-11T16:29:04.333Z
2267,1100,173,0,31,1272,1011.36,3897,15.91,620,87.1,0.79,51,-208,2017-03-11T16:23:08.080Z
2267,1100,177,0,30,1271,1011.41,3897,15.95,520,87.06,0.79,48,-205,2017-03-11T16:17:10.329Z
2270,1100,262,0,29,1267,1011.41,3897,15.98,620,87.3,0.79,60,-212,2017-03-11T16:11:12.331Z
2273,1001100,311,0,28,1267,1011.37,3897,16.02,620,87.55,0.79,51,-208,2017-03-11T16:05:15.545Z
2261,1001100,212,0,27,1264,1011.43,3897,16.08,520,87.65,0.79,56,-208,2017-03-11T15:59:19.914Z
2241,1100,238,0,26,1276,1011.28,3897,16.07,620,86.47,0.79,44,-208,2017-03-11T15:53:21.256Z
2235,1100,279,0,25,1258,1011.16,3893,16.06,520,84.46,0.79,49,-209,2017-03-11T15:47:23.678Z
2235,1100,351,0,24,1265,1011.21,3897,16.12,520,84.37,0.79,48,-212,2017-03-11T15:41:26.827Z
2232,1100,448,0,23,1264,1011.24,3897,16.18,520,84.33,0.79,51,-208,2017-03-11T15:35:29.645Z
2235,1100,602,0,22,1273,1011.29,3893,16.24,520,84.35,0.79,48,-208,2017-03-11T15:29:33.059Z
2241,1100,999,0,21,1262,1011.13,3897,16.26,520,84.46,0.79,51,-208,2017-03-11T15:23:37.209Z
2241,1100,902,0,20,1268,1011.25,3897,16.25,520,84.69,0.79,48,-209,2017-03-11T15:17:40.869Z
2247,1100,999,0,19,1274,1011.27,3893,16.19,520,85.03,0.79,51,-209,2017-03-11T15:11:43.742Z
2241,1100,840,0,18,1263,1011.37,3893,16.13,520,85.26,0.79,39,-207,2017-03-11T15:05:47.596Z
2241,1100,598,0,17,1273,1011.55,3889,16.1,520,85.39,0.79,48,-208,2017-03-11T14:59:49.832Z
2241,1100,446,0,16,1264,1011.72,3897,16.13,520,85.41,0.79,47,-205,2017-03-11T14:53:52.839Z
2241,1100,622,0,15,1279,1011.8,3897,16.17,620,85.43,0.79,51,-212,2017-03-11T14:47:55.807Z
2247,1100,353,0,14,1260,1012.02,3897,16.19,620,85.36,0.79,48,-205,2017-03-11T14:41:58.909Z
2244,1100,679,0,13,1272,1011.98,3897,16.31,520,85.2,0.79,49,-208,2017-03-11T14:36:04.191Z
2250,1100,999,0,12,1283,1011.77,3893,16.31,520,85.41,0.79,51,-208,2017-03-11T14:30:06.341Z
2252,1100,999,0,11,1267,1011.81,3897,16.13,520,85.75,0.79,48,-208,2017-03-11T14:24:09.373Z
2250,1100,561,0,10,1265,1012.01,3897,16.12,520,85.82,0.79,44,-209,2017-03-11T14:18:17.818Z
2241,1100,571,0,9,1283,1012.04,3897,16.14,520,85.69,0.79,51,-210,2017-03-11T14:12:16.011Z
2244,1100,666,0,8,1260,1012.07,3897,16.17,520,85.63,0.79,51,-208,2017-03-11T14:06:19.833Z
2241,1100,856,0,7,1268,1011.96,3897,16.14,520,85.66,0.79,51,-207,2017-03-11T14:00:25.226Z
2244,1100,703,0,6,1260,1012.01,3897,16.14,620,85.73,0.79,52,-205,2017-03-11T13:54:27.394Z
2241,1100,730,0,5,1268,1012.01,3897,16.18,620,85.81,0.79,56,-208,2017-03-11T13:48:29.192Z
2238,1100,775,0,4,1270,1012.04,3897,16.21,520,85.84,0.79,48,-208,2017-03-11T13:42:38.464Z
2238,1100,750,0,3,1272,1012.16,3897,16.23,520,85.95,0.79,49,-208,2017-03-11T13:36:38.004Z
2229,101100,858,0,1,1260,1012.05,3897,16.29,620,86,0.79,44,-215,2017-03-11T13:24:43.229Z
2223,1111101,0,0,0,1215,1012.11,3889,16.26,620,88.34,0.79,220,-340,2017-03-11T13:18:47.647Z
2156,1100,999,0,2380,1310,1017.97,3911,15.26,220,74.51,0.79,23,-187,2017-03-10T13:13:58.811Z
2153,1100,999,0,2379,1316,1017.97,3906,15.23,220,74.74,0.79,15,-196,2017-03-10T13:08:03.197Z
2156,1100,999,0,2378,1315,1017.99,3906,15.17,220,75.03,0.79,25,-193,2017-03-10T13:02:02.009Z
2159,1100,999,0,2377,1315,1018.14,3906,15.13,220,75.26,0.79,24,-199,2017-03-10T12:56:02.546Z
2156,1100,999,0,2376,1320,1018.23,3906,15.06,220,75.48,0.79,14,-196,2017-03-10T12:50:05.057Z
2159,1100,999,0,2375,1320,1018.36,3906,14.99,220,75.72,0.79,24,-192,2017-03-10T12:44:13.741Z
2162,1100,999,0,2374,1324,1018.48,3906,14.92,220,76.01,0.79,24,-191,2017-03-10T12:38:15.627Z
2159,1100,999,0,2373,1324,1018.5,3906,14.87,220,76.26,0.79,30,-193,2017-03-10T12:32:13.407Z
2159,1100,999,0,2372,1328,1018.49,3906,14.81,220,76.6,0.79,17,-196,2017-03-10T12:26:15.359Z
2162,1100,999,0,2371,1324,1018.57,3906,14.73,220,76.83,0.79,17,-189,2017-03-10T12:20:23.440Z
2162,1100,999,0,2370,1320,1018.56,3906,14.72,220,77.11,0.79,24,-196,2017-03-10T12:14:19.810Z
2159,1100,999,0,2369,1324,1018.7,3906,14.59,220,77.4,0.79,18,-194,2017-03-10T12:08:22.045Z
2165,1100,999,0,2368,1319,1018.76,3906,14.49,220,77.67,0.79,23,-185,2017-03-10T12:02:29.017Z
2167,1100,999,0,2367,1319,1018.81,3906,14.43,220,77.99,0.79,24,-189,2017-03-10T11:56:28.036Z
2162,1100,999,0,2366,1318,1018.91,3906,14.36,220,78.29,0.79,19,-193,2017-03-10T11:50:28.654Z
2162,1100,999,0,2365,1324,1018.88,3906,14.27,220,78.63,0.79,23,-185,2017-03-10T11:44:30.842Z
2162,1100,999,0,2364,1326,1018.87,3906,14.19,220,78.99,0.79,24,-196,2017-03-10T11:38:31.897Z
2162,1100,999,0,2363,1326,1018.94,3911,14.07,220,79.25,0.79,1,-200,2017-03-10T11:32:32.553Z
2162,1100,999,0,2362,1323,1018.97,3906,13.92,320,79.39,0.79,6,-208,2017-03-10T11:26:34.599Z
2167,1100,999,0,2360,1315,1019.11,3906,13.61,220,79.46,0.79,32,-184,2017-03-10T11:14:37.195Z
2165,1100,999,0,2359,1313,1019.13,3911,13.53,220,79.6,0.79,28,-184,2017-03-10T11:08:36.540Z
2162,1100,999,0,2358,1315,1019.28,3911,13.43,220,79.64,0.79,38,-177,2017-03-10T11:02:36.867Z
2165,1100,999,0,2357,1305,1019.28,3911,13.37,220,79.76,0.79,28,-186,2017-03-10T10:56:36.103Z
2170,1100,999,0,2356,1306,1019.39,3911,13.32,220,79.87,0.79,33,-185,2017-03-10T10:50:37.693Z
2165,1100,999,0,2355,1307,1019.37,3911,13.27,220,79.99,0.79,35,-180,2017-03-10T10:44:40.616Z
2167,1100,999,0,2354,1312,1019.33,3911,13.18,220,80.07,0.79,35,-182,2017-03-10T10:38:35.693Z
2165,1100,891,0,2352,1308,1019.47,3911,13.08,220,80.23,0.79,36,-183,2017-03-10T10:26:38.954Z
2162,1100,870,0,2350,1303,1019.53,3911,12.98,220,80.41,0.79,39,-185,2017-03-10T10:14:31.792Z
2170,1100,875,0,2349,1294,1019.57,3906,12.94,220,80.48,0.79,33,-197,2017-03-10T10:08:33.071Z
2165,1100,699,0,2348,1304,1019.71,3911,12.88,220,80.57,0.79,46,-178,2017-03-10T10:02:29.910Z
2170,1100,677,0,2347,1304,1019.73,3911,12.86,220,80.75,0.79,41,-189,2017-03-10T09:56:29.492Z
2165,1100,880,0,2346,1303,1019.76,3911,12.84,220,80.89,0.79,38,-180,2017-03-10T09:50:29.771Z
2167,1100,916,0,2345,1304,1019.87,3911,12.78,220,80.93,0.79,40,-184,2017-03-10T09:44:26.549Z
2165,1100,871,0,2344,1302,1019.88,3911,12.71,220,80.98,0.79,39,-184,2017-03-10T09:38:25.268Z
2165,1100,669,0,2343,1295,1019.84,3911,12.66,220,81.04,0.79,39,-188,2017-03-10T09:32:33.226Z
2165,1100,696,0,2342,1289,1019.9,3911,12.6,220,81.09,0.79,35,-196,2017-03-10T09:26:21.649Z
2165,1100,559,0,2341,1286,1019.88,3911,12.57,220,81.2,0.79,44,-199,2017-03-10T09:20:22.918Z
2165,1100,771,0,2340,1308,1019.87,3911,12.52,220,81.29,0.79,44,-181,2017-03-10T09:14:17.769Z
2167,1100,718,0,2339,1296,1019.91,3911,12.48,220,81.31,0.79,33,-189,2017-03-10T09:08:17.292Z
2167,1100,599,0,2338,1288,1019.88,3911,12.4,220,81.27,0.79,44,-194,2017-03-10T09:02:15.341Z
2167,1100,449,0,2337,1287,1019.86,3911,12.37,220,81.31,0.79,41,-200,2017-03-10T08:56:12.865Z
2162,1100,507,0,2336,1286,1019.89,3911,12.33,220,81.34,0.79,44,-196,2017-03-10T08:50:11.480Z
2162,1100,426,0,2335,1276,1019.85,3911,12.29,220,81.34,0.79,47,-212,2017-03-10T08:44:13.356Z
2159,1100,325,0,2334,1276,1019.81,3911,12.26,220,81.3,0.79,51,-193,2017-03-10T08:38:04.384Z
2159,1100,307,0,2333,1287,1019.73,3911,12.24,220,81.32,0.79,39,-196,2017-03-10T08:32:03.144Z
2167,1100,340,0,2332,1292,1019.8,3911,12.22,220,81.3,0.79,47,-202,2017-03-10T08:26:00.064Z
2165,1100,267,0,2331,1270,1019.85,3911,12.2,220,81.3,0.79,44,-193,2017-03-10T08:20:03.708Z
2165,1100,215,0,2330,1278,1019.82,3911,12.18,220,81.3,0.79,43,-194,2017-03-10T08:13:54.853Z
2167,1100,293,0,2329,1270,1019.83,3915,12.15,220,81.25,0.79,59,-184,2017-03-10T08:07:52.833Z
2159,1100,149,0,2328,1264,1019.79,3911,12.13,220,81.23,0.79,49,-200,2017-03-10T08:01:54.048Z
2167,1100,104,0,2326,1270,1019.78,3911,12.12,220,81.18,0.79,42,-192,2017-03-10T07:49:43.698Z
2162,1100,116,0,2325,1267,1019.73,3911,12.11,220,81.16,0.79,59,-189,2017-03-10T07:43:41.298Z
2159,1100,70,0,2324,1255,1019.76,3915,12.11,220,81.12,0.79,40,-193,2017-03-10T07:37:40.623Z
2165,1100,55,0,2323,1271,1019.8,3915,12.11,220,81.12,0.79,48,-199,2017-03-10T07:31:40.817Z
2165,1100,58,0,2322,1272,1019.84,3911,12.11,220,81.08,0.79,62,-185,2017-03-10T07:25:34.419Z
2162,1100,71,0,2321,1275,1019.74,3911,12.1,220,81.08,0.79,63,-193,2017-03-10T07:19:30.981Z
2165,1100,56,0,2320,1264,1019.8,3915,12.08,320,81.01,0.79,57,-185,2017-03-10T07:13:26.828Z
2162,1100,51,0,2319,1255,1019.89,3911,12.07,220,80.99,0.79,36,-199,2017-03-10T07:07:24.002Z
2165,1100,30,0,2318,1271,1019.83,3911,12.06,220,80.99,0.79,57,-185,2017-03-10T07:01:23.750Z
2159,1100,27,0,2317,1272,1019.87,3915,12.05,220,80.99,0.79,44,-196,2017-03-10T06:55:20.488Z
2159,1100,28,0,2316,1262,1019.79,3915,12.04,220,81.01,0.79,41,-200,2017-03-10T06:49:20.774Z
2156,1100,17,0,2315,1264,1019.81,3915,12.02,220,80.99,0.79,49,-200,2017-03-10T06:43:14.265Z
2159,1100,4,0,2312,1271,1019.74,3911,11.95,220,80.94,0.79,62,-189,2017-03-10T06:25:03.880Z
2159,1100,0,0,2311,1255,1019.81,3915,11.93,220,80.92,0.79,47,-196,2017-03-10T06:19:00.340Z
2156,1100,0,0,2310,1268,1019.73,3915,11.93,220,80.9,0.79,49,-199,2017-03-10T06:12:59.004Z
2162,1100,0,0,2309,1267,1019.7,3915,11.93,220,80.88,0.79,56,-180,2017-03-10T06:06:54.780Z
2162,1100,0,0,2308,1262,1019.6,3915,11.93,220,80.86,0.79,60,-189,2017-03-10T06:00:50.798Z
2159,1100,0,0,2307,1264,1019.62,3915,11.93,220,80.83,0.79,63,-188,2017-03-10T05:54:47.202Z
2156,1100,0,0,2306,1262,1019.63,3915,11.93,220,80.79,0.79,36,-199,2017-03-10T05:48:45.143Z
2159,1100,0,0,2305,1260,1019.67,3915,11.93,220,80.76,0.79,60,-185,2017-03-10T05:42:42.222Z
2159,1100,0,0,2304,1263,1019.65,3915,11.93,220,80.7,0.79,35,-196,2017-03-10T05:36:40.095Z
2156,1100,0,0,2303,1264,1019.6,3915,11.93,220,80.68,0.79,60,-181,2017-03-10T05:30:40.098Z
2159,1100,0,0,2302,1268,1019.57,3915,11.93,220,80.66,0.79,46,-194,2017-03-10T05:24:37.202Z
2159,1100,0,0,2301,1276,1019.54,3915,11.92,220,80.63,0.79,48,-199,2017-03-10T05:18:34.027Z
2153,1100,0,0,2300,1256,1019.56,3911,11.92,220,80.61,0.79,57,-189,2017-03-10T05:12:25.145Z
2156,1100,0,0,2299,1257,1019.64,3915,11.92,220,80.59,0.79,60,-181,2017-03-10T05:06:25.915Z
2156,1100,0,0,2298,1268,1019.8,3915,11.9,220,80.57,0.79,44,-194,2017-03-10T05:00:22.585Z
2153,1100,0,0,2297,1256,1019.81,3915,11.9,220,80.54,0.79,43,-197,2017-03-10T04:54:15.148Z
2156,1100,0,0,2296,1272,1019.86,3915,11.9,220,80.5,0.79,41,-196,2017-03-10T04:48:16.515Z
2153,1100,0,0,2295,1248,1019.98,3915,11.89,220,80.48,0.79,43,-194,2017-03-10T04:42:09.254Z
2156,1100,0,0,2294,1260,1020.09,3915,11.89,220,80.46,0.79,44,-196,2017-03-10T04:36:11.833Z
2153,1100,0,0,2292,1259,1020.15,3915,11.89,220,80.37,0.79,39,-196,2017-03-10T04:23:58.065Z
2150,1100,0,0,2291,1263,1020.12,3915,11.88,220,80.34,0.79,40,-197,2017-03-10T04:17:54.565Z
2156,1100,0,0,2290,1254,1020.18,3915,11.88,220,80.3,0.79,55,-184,2017-03-10T04:11:52.944Z
2156,1100,0,0,2289,1260,1020.17,3915,11.88,220,80.28,0.79,60,-188,2017-03-10T04:05:49.046Z
2156,1100,0,0,2288,1264,1020.11,3915,11.89,220,80.24,0.79,40,-199,2017-03-10T03:59:44.677Z
2150,1100,0,0,2287,1257,1020.17,3915,11.88,220,80.19,0.79,56,-189,2017-03-10T03:53:41.668Z
2153,1100,0,0,2286,1263,1020.17,3915,11.88,220,80.17,0.79,39,-200,2017-03-10T03:47:38.918Z
2153,1100,0,0,2285,1255,1020.36,3915,11.89,220,80.15,0.79,48,-193,2017-03-10T03:41:36.208Z
2150,1100,0,0,2283,1264,1020.43,3915,11.88,220,80.08,0.79,60,-185,2017-03-10T03:29:28.152Z
2153,1100,0,0,2282,1272,1020.45,3915,11.88,220,80.06,0.79,63,-193,2017-03-10T03:23:24.901Z
2159,1100,0,0,2281,1260,1020.54,3915,11.88,220,80.02,0.79,56,-183,2017-03-10T03:17:21.307Z
2153,1100,0,0,2280,1251,1020.61,3915,11.88,220,79.97,0.79,44,-196,2017-03-10T03:11:18.693Z
2153,1100,0,0,2279,1270,1020.64,3915,11.88,220,79.95,0.79,40,-196,2017-03-10T03:05:19.964Z
2150,1100,0,0,2278,1260,1020.65,3915,11.88,220,79.9,0.79,40,-196,2017-03-10T02:59:16.258Z
2156,1100,0,0,2277,1266,1020.71,3915,11.88,220,79.86,0.79,63,-185,2017-03-10T02:53:13.049Z
2150,1100,0,0,2276,1262,1020.68,3915,11.88,220,79.83,0.79,39,-192,2017-03-10T02:47:05.600Z
2153,1100,0,0,2275,1263,1020.81,3919,11.88,220,79.8,0.79,60,-185,2017-03-10T02:41:06.824Z
2150,1100,0,0,2274,1260,1020.82,3915,11.88,220,79.75,0.79,36,-194,2017-03-10T02:34:58.006Z
2147,1100,0,0,2273,1264,1020.95,3915,11.88,220,79.7,0.79,63,-188,2017-03-10T02:28:55.138Z
2150,1100,0,0,2272,1251,1021.02,3915,11.89,220,79.66,0.79,52,-186,2017-03-10T02:22:51.413Z
2153,1100,0,0,2271,1255,1021.1,3915,11.89,220,79.61,0.79,37,-193,2017-03-10T02:16:48.849Z
2147,1100,0,0,2270,1264,1021.26,3919,11.9,220,79.59,0.79,60,-186,2017-03-10T02:10:52.214Z
2147,1100,0,0,2269,1260,1021.3,3915,11.9,220,79.57,0.79,63,-184,2017-03-10T02:04:42.262Z
2153,1100,0,0,2268,1260,1021.34,3915,11.9,220,79.55,0.79,41,-194,2017-03-10T01:58:37.437Z
2153,1100,0,0,2267,1255,1021.46,3915,11.92,220,79.51,0.79,35,-200,2017-03-10T01:52:35.494Z
2147,1100,0,0,2266,1267,1021.49,3915,11.92,220,79.46,0.79,44,-205,2017-03-10T01:46:31.088Z
2153,1100,0,0,2265,1255,1021.59,3915,11.92,220,79.44,0.79,57,-189,2017-03-10T01:40:27.369Z
2156,1100,0,0,2264,1262,1021.62,3915,11.92,220,79.39,0.79,57,-184,2017-03-10T01:34:29.004Z
2147,1100,0,0,2262,1255,1021.54,3911,11.93,220,79.28,0.79,38,-197,2017-03-10T01:22:18.050Z
2147,1100,0,0,2261,1255,1021.6,3915,11.93,220,79.24,0.79,44,-194,2017-03-10T01:16:14.057Z
2150,1100,0,0,2260,1256,1021.7,3915,11.93,220,79.23,0.79,40,-197,2017-03-10T01:10:17.041Z
2150,1100,0,0,2259,1260,1021.7,3915,11.93,220,79.19,0.79,40,-204,2017-03-10T01:04:07.941Z
2147,1100,0,0,2258,1260,1021.76,3919,11.93,220,79.12,0.79,63,-194,2017-03-10T00:58:03.959Z
2150,1100,0,0,2257,1238,1021.78,3915,11.93,220,79.06,0.79,43,-197,2017-03-10T00:52:01.661Z
2147,1100,0,0,2256,1265,1021.86,3915,11.93,220,78.99,0.79,43,-194,2017-03-10T00:45:56.379Z
2147,1100,0,0,2255,1267,1021.91,3919,11.93,220,78.93,0.79,57,-189,2017-03-10T00:39:57.657Z
2144,1100,0,0,2254,1257,1021.84,3915,11.93,220,78.86,0.79,44,-199,2017-03-10T00:34:21.533Z
2150,1100,0,0,2253,1255,1021.88,3919,11.94,220,78.79,0.79,60,-183,2017-03-10T00:27:51.908Z
2150,1100,0,0,2252,1265,1022,3915,11.96,220,78.74,0.79,62,-184,2017-03-10T00:21:43.574Z
2147,1100,0,0,2251,1266,1022.01,3919,11.97,220,78.68,0.79,38,-196,2017-03-10T00:15:40.483Z
2147,1100,0,0,2250,1259,1022.02,3919,11.98,220,78.61,0.79,41,-196,2017-03-10T00:09:36.836Z
2147,1100,0,0,2249,1264,1022.01,3919,11.99,220,78.57,0.79,56,-185,2017-03-10T00:03:33.663Z
2153,1100,0,0,2248,1256,1021.91,3919,12.02,220,78.51,0.79,56,-186,2017-03-09T23:57:28.631Z
2147,1100,0,0,2247,1267,1021.9,3915,12.02,220,78.44,0.79,63,-189,2017-03-09T23:51:25.842Z
2147,1100,0,0,2246,1267,1021.76,3915,12.04,220,78.35,0.79,63,-188,2017-03-09T23:45:26.807Z
2144,1100,0,0,2245,1260,1021.73,3915,12.05,220,78.27,0.79,43,-201,2017-03-09T23:39:18.540Z
2153,1100,0,0,2244,1260,1021.68,3915,12.06,220,78.17,0.79,57,-185,2017-03-09T23:33:20.838Z
2150,1100,0,0,2243,1260,1021.62,3915,12.07,220,78.09,0.79,63,-191,2017-03-09T23:27:11.721Z
2144,1100,0,0,2242,1255,1021.67,3919,12.09,220,78.01,0.79,44,-197,2017-03-09T23:21:08.722Z
2147,1100,0,0,2241,1256,1021.66,3915,12.1,220,77.97,0.79,63,-184,2017-03-09T23:15:04.451Z
2144,1100,0,0,2240,1271,1021.62,3915,12.11,220,77.86,0.79,65,-189,2017-03-09T23:09:06.970Z
2141,1100,0,0,2238,1251,1021.49,3919,12.13,220,77.71,0.79,39,-196,2017-03-09T22:56:54.421Z
2147,1100,0,0,2237,1257,1021.53,3915,12.14,220,77.64,0.79,34,-196,2017-03-09T22:50:58.527Z
2144,1100,0,0,2236,1262,1021.46,3915,12.15,220,77.56,0.79,36,-193,2017-03-09T22:44:52.836Z
2144,1100,0,0,2235,1256,1021.25,3915,12.17,220,77.48,0.79,39,-199,2017-03-09T22:38:45.148Z
2147,1100,0,0,2234,1257,1021.37,3919,12.18,220,77.4,0.79,59,-181,2017-03-09T22:32:42.286Z
2147,1100,0,0,2233,1262,1021.22,3919,12.19,220,77.3,0.79,62,-188,2017-03-09T22:26:43.765Z
2141,1100,0,0,2231,1254,1021.04,3919,12.21,220,77.17,0.79,41,-194,2017-03-09T22:14:33.684Z
2147,1100,0,0,2230,1263,1021.15,3919,12.23,220,77.06,0.79,35,-193,2017-03-09T22:08:28.726Z
2147,1100,0,0,2229,1268,1020.99,3915,12.24,220,76.96,0.79,60,-184,2017-03-09T22:02:26.698Z
2144,1100,0,0,2228,1259,1020.83,3919,12.25,220,76.86,0.79,62,-186,2017-03-09T21:56:28.108Z
2147,1100,0,0,2227,1248,1020.93,3919,12.26,220,76.77,0.79,39,-201,2017-03-09T21:50:21.010Z
2141,1100,0,0,2226,1257,1021,3919,12.27,220,76.74,0.79,39,-197,2017-03-09T21:44:16.887Z
2144,1100,0,0,2225,1257,1020.98,3919,12.28,220,76.66,0.79,63,-181,2017-03-09T21:38:13.500Z
2147,1100,0,0,2224,1270,1021.03,3919,12.28,220,76.58,0.79,63,-189,2017-03-09T21:32:10.304Z
2141,1100,0,0,2223,1255,1021.15,3915,12.3,220,76.48,0.79,62,-191,2017-03-09T21:26:08.416Z
2141,1100,0,0,2222,1251,1021.07,3919,12.32,220,76.37,0.79,64,-189,2017-03-09T21:20:05.147Z
2138,1100,0,0,2221,1267,1021.02,3919,12.32,220,76.27,0.79,41,-194,2017-03-09T21:14:02.697Z
2144,1100,0,0,2220,1263,1021.08,3919,12.32,220,76.19,0.79,62,-189,2017-03-09T21:07:58.231Z
2147,1100,0,0,2219,1251,1021.18,3919,12.32,220,76.11,0.79,60,-189,2017-03-09T21:02:00.983Z
2141,1100,0,0,2217,1265,1021.11,3919,12.34,220,75.9,0.79,46,-200,2017-03-09T20:49:49.427Z
2147,1100,0,0,2216,1259,1021.17,3919,12.34,220,75.83,0.79,39,-196,2017-03-09T20:43:51.086Z
2141,1100,0,0,2215,1256,1021.2,3919,12.35,220,75.72,0.79,44,-196,2017-03-09T20:37:49.010Z
2144,1100,0,0,2214,1257,1021.33,3919,12.36,220,75.64,0.79,44,-200,2017-03-09T20:31:40.884Z
2141,1100,0,0,2213,1251,1021.33,3919,12.36,220,75.57,0.79,45,-200,2017-03-09T20:25:38.407Z
2138,1100,0,0,2212,1267,1021.22,3919,12.37,220,75.46,0.79,60,-191,2017-03-09T20:19:34.287Z
2144,1100,0,0,2211,1255,1021.1,3919,12.38,220,75.39,0.79,40,-193,2017-03-09T20:13:36.866Z
2141,1100,0,0,2210,1246,1021.03,3915,12.38,220,75.28,0.79,40,-199,2017-03-09T20:07:27.979Z
2144,1100,0,0,2209,1262,1021.11,3919,12.39,220,75.18,0.79,40,-199,2017-03-09T20:01:27.436Z
2138,1100,0,0,2208,1271,1021.16,3919,12.39,220,75.07,0.79,46,-200,2017-03-09T19:55:30.976Z
2141,1100,0,0,2207,1255,1021.29,3919,12.4,220,74.91,0.79,40,-200,2017-03-09T19:49:19.450Z
2144,1100,0,0,2205,1260,1021.11,3919,12.42,220,74.68,0.79,57,-189,2017-03-09T19:37:18.947Z
2138,1100,0,0,2204,1260,1021.04,3919,12.43,220,74.61,0.79,39,-204,2017-03-09T19:31:18.077Z
2141,1100,0,0,2203,1262,1020.88,3919,12.45,220,74.49,0.79,58,-191,2017-03-09T19:25:09.620Z
2138,1100,0,0,2202,1251,1020.89,3919,12.48,220,74.36,0.79,39,-197,2017-03-09T19:19:10.201Z
2141,1100,0,0,2201,1260,1020.77,3919,12.48,220,74.2,0.79,40,-197,2017-03-09T19:13:07.782Z
2135,1100,0,0,2200,1260,1020.7,3919,12.5,220,74.07,0.79,41,-194,2017-03-09T19:07:00.744Z
2135,1100,0,0,2199,1252,1020.88,3919,12.52,220,73.94,0.79,38,-192,2017-03-09T19:00:56.502Z
2135,1100,0,0,2198,1254,1020.85,3919,12.55,220,73.78,0.79,35,-196,2017-03-09T18:54:55.032Z
2135,1100,0,0,2196,1257,1020.55,3919,12.59,220,73.47,0.79,39,-202,2017-03-09T18:42:49.593Z
2135,1100,0,0,2195,1256,1020.45,3919,12.62,220,73.31,0.79,39,-197,2017-03-09T18:36:44.916Z
2141,11100,0,0,2194,1264,1020.48,3919,12.66,220,73.2,0.79,63,-189,2017-03-09T18:30:44.988Z
2141,1100,0,0,2193,1251,1020.16,3919,12.68,220,73.04,0.79,39,-193,2017-03-09T18:24:40.498Z
2138,1100,2,0,2192,1255,1020.07,3919,12.71,220,72.83,0.79,44,-196,2017-03-09T18:18:41.748Z
2141,1100,7,0,2191,1260,1020.25,3919,12.74,220,72.68,0.79,44,-196,2017-03-09T18:12:34.809Z
2138,1100,20,0,2189,1251,1019.97,3919,12.82,220,72.39,0.79,40,-196,2017-03-09T18:00:33.210Z
2138,1100,32,0,2188,1264,1020.14,3919,12.86,220,72.24,0.79,42,-196,2017-03-09T17:54:28.656Z
2135,1100,48,0,2187,1250,1020.19,3919,12.87,220,72.09,0.79,48,-206,2017-03-09T17:48:29.488Z
2135,1100,57,0,2186,1252,1020.18,3919,12.92,220,71.98,0.79,44,-197,2017-03-09T17:42:21.629Z
2138,1100,82,0,2184,1252,1020.34,3919,13,220,71.81,0.79,44,-201,2017-03-09T17:30:19.981Z
2144,1100,82,0,2183,1254,1020.23,3919,13.04,220,71.7,0.79,38,-196,2017-03-09T17:24:19.980Z
2138,1100,103,0,2181,1255,1019.76,3919,13.12,220,71.57,0.79,44,-205,2017-03-09T17:12:12.305Z
2138,1100,124,0,2180,1262,1019.8,3919,13.16,220,71.56,0.79,44,-200,2017-03-09T17:06:09.546Z
2135,1100,130,0,2179,1264,1019.89,3919,13.21,220,71.51,0.79,49,-200,2017-03-09T17:00:07.289Z
2138,1100,151,0,2178,1265,1019.94,3919,13.26,220,71.43,0.79,48,-204,2017-03-09T16:54:05.111Z
2141,1100,165,0,2177,1260,1019.69,3919,13.3,220,71.35,0.79,51,-199,2017-03-09T16:48:03.235Z
2138,1100,152,0,2176,1264,1019.54,3919,13.32,220,71.27,0.79,44,-196,2017-03-09T16:42:01.969Z
2138,1100,177,0,2174,1276,1019.61,3919,13.42,220,71.17,0.79,48,-205,2017-03-09T16:29:58.702Z
2138,1100,215,0,2173,1267,1019.5,3919,13.46,220,71.13,0.79,51,-205,2017-03-09T16:23:57.092Z
2138,1100,234,0,2172,1271,1019.42,3919,13.51,220,71.14,0.79,48,-201,2017-03-09T16:18:01.405Z
2141,1100,262,0,2170,1271,1019.13,3919,13.58,220,71.14,0.79,43,-204,2017-03-09T16:05:56.959Z
2138,1100,305,0,2169,1272,1019.32,3919,13.6,220,71.11,0.79,48,-200,2017-03-09T15:59:57.209Z
2141,1100,299,0,2168,1271,1019.2,3919,13.65,220,71.11,0.79,39,-199,2017-03-09T15:53:57.371Z
2144,1100,310,0,2167,1286,1019.25,3919,13.7,220,71.17,0.79,43,-192,2017-03-09T15:47:50.400Z
2138,1100,357,0,2166,1286,1019.08,3919,13.73,220,71.2,0.79,36,-200,2017-03-09T15:41:50.191Z
2144,1100,381,0,2164,1288,1018.88,3919,13.8,220,71.3,0.79,43,-204,2017-03-09T15:29:49.138Z
2141,1100,401,0,2163,1295,1018.75,3919,13.82,220,71.4,0.79,31,-199,2017-03-09T15:23:48.036Z
2141,1100,453,0,2162,1291,1018.72,3919,13.84,220,71.46,0.79,41,-178,2017-03-09T15:17:50.917Z
2150,1100,514,0,2161,1288,1018.8,3919,13.86,220,71.55,0.79,39,-200,2017-03-09T15:11:47.987Z
2141,1100,541,0,2160,1295,1018.78,3919,13.87,220,71.65,0.79,47,-181,2017-03-09T15:05:47.909Z
2144,1100,590,0,2159,1295,1018.7,3919,13.88,220,71.73,0.79,44,-183,2017-03-09T14:59:48.724Z
2144,1100,667,0,2158,1297,1018.71,3919,13.89,220,71.81,0.79,41,-186,2017-03-09T14:53:47.754Z
2144,1100,628,0,2156,1299,1018.16,3919,13.87,220,71.94,0.79,32,-189,2017-03-09T14:41:47.342Z
2141,1100,597,0,2155,1296,1018.16,3919,13.86,220,72.04,0.79,47,-184,2017-03-09T14:35:49.725Z
2147,1100,599,0,2154,1297,1018.02,3919,13.86,220,72.15,0.79,39,-180,2017-03-09T14:29:51.404Z
2144,1100,620,0,2153,1297,1018,3919,13.85,220,72.25,0.79,35,-183,2017-03-09T14:23:46.570Z
2144,1100,676,0,2152,1303,1017.98,3919,13.83,220,72.3,0.79,43,-189,2017-03-09T14:17:50.763Z
2144,1100,603,0,2151,1297,1017.89,3919,13.83,220,72.4,0.79,48,-189,2017-03-09T14:11:46.711Z
2147,1100,634,0,2150,1302,1017.78,3919,13.82,220,72.5,0.79,39,-185,2017-03-09T14:05:47.907Z
2144,1100,592,0,2149,1300,1017.72,3919,13.81,220,72.63,0.79,47,-191,2017-03-09T13:59:46.380Z
2144,1100,691,0,2148,1292,1017.81,3919,13.81,220,72.79,0.79,39,-192,2017-03-09T13:53:45.925Z
2153,1100,886,0,2147,1311,1017.81,3919,13.8,220,72.9,0.79,31,-178,2017-03-09T13:47:44.623Z
2144,1100,791,0,2146,1304,1017.6,3919,13.75,220,72.87,0.79,38,-186,2017-03-09T13:41:44.710Z
2150,1100,578,0,2144,1303,1017.55,3924,13.72,220,72.81,0.79,48,-192,2017-03-09T13:29:44.891Z
2147,1100,555,0,2143,1279,1017.55,3919,13.74,220,72.81,0.79,39,-196,2017-03-09T13:23:42.881Z
2144,1100,551,0,2142,1307,1017.67,3919,13.76,220,72.9,0.79,59,-186,2017-03-09T13:17:47.885Z
2147,1100,521,0,2141,1292,1017.59,3919,13.8,220,72.97,0.79,39,-177,2017-03-09T13:11:48.781Z
2147,1100,493,0,2140,1295,1017.51,3919,13.81,220,73.1,0.79,39,-185,2017-03-09T13:05:44.702Z
2153,1100,594,0,2139,1292,1017.44,3919,13.83,220,73.18,0.79,36,-185,2017-03-09T12:59:41.921Z
2153,1100,561,0,2138,1294,1017.41,3924,13.84,220,73.27,0.79,33,-199,2017-03-09T12:53:41.288Z
2147,1100,375,0,2137,1288,1017.28,3919,13.88,220,73.4,0.79,33,-196,2017-03-09T12:47:45.749Z
2150,1100,999,0,2136,1308,1017.16,3924,13.91,220,73.56,0.79,32,-176,2017-03-09T12:41:40.288Z
2150,1100,999,0,2135,1305,1017.06,3919,13.9,220,73.56,0.79,47,-186,2017-03-09T12:35:46.304Z
2153,1100,526,0,2134,1295,1017.22,3919,13.92,220,73.66,0.79,35,-185,2017-03-09T12:29:40.094Z
2153,1100,828,0,2133,1295,1017.2,3919,13.92,220,73.71,0.79,35,-201,2017-03-09T12:23:40.204Z
2150,1100,406,0,2132,1286,1017.08,3919,13.98,220,73.87,0.79,41,-197,2017-03-09T12:17:41.110Z
2150,1100,583,0,2131,1291,1017,3924,14.04,220,74.14,0.79,40,-196,2017-03-09T12:11:40.770Z
2156,1100,492,0,2130,1305,1017.14,3924,14.12,220,74.41,0.79,36,-181,2017-03-09T12:05:46.268Z
2156,1100,999,0,2129,1308,1017.13,3919,14.14,220,74.69,0.79,35,-180,2017-03-09T11:59:42.015Z
2153,1100,999,0,2128,1305,1017.25,3919,14.12,220,74.9,0.79,39,-185,2017-03-09T11:53:46.383Z
2159,1100,930,0,2127,1299,1017.16,3924,14.12,220,75.09,0.79,39,-188,2017-03-09T11:47:43.418Z
2156,1100,999,0,2126,1304,1017.03,3919,14.12,220,75.45,0.79,27,-178,2017-03-09T11:41:43.608Z
2159,1100,999,0,2124,1313,1016.92,3919,14,220,75.97,0.79,26,-193,2017-03-09T11:29:50.821Z
2165,11100,999,0,2123,1319,1016.95,3919,13.92,220,76.15,0.79,33,-189,2017-03-09T11:23:51.789Z
2156,1100,999,0,2122,1321,1016.69,3924,13.87,220,76.35,0.79,32,-186,2017-03-09T11:17:46.756Z
2159,1100,999,0,2121,1304,1016.7,3919,13.82,220,76.53,0.79,36,-185,2017-03-09T11:11:55.555Z
2156,1100,999,0,2120,1312,1016.57,3919,13.81,220,76.84,0.79,35,-183,2017-03-09T11:05:48.310Z
2159,1100,999,0,2119,1316,1016.55,3919,13.75,220,77.05,0.79,35,-185,2017-03-09T10:59:49.187Z
2167,1100,965,0,2118,1308,1016.43,3919,13.71,220,77.29,0.79,31,-177,2017-03-09T10:53:49.029Z
2159,11100,999,0,2117,1304,1016.35,3924,13.67,220,77.53,0.79,31,-183,2017-03-09T10:47:48.409Z
2167,1100,999,0,2116,1321,1016.08,3924,13.67,220,77.84,0.79,31,-181,2017-03-09T10:41:49.017Z
2165,1100,999,0,2115,1311,1015.99,3919,13.6,220,78.1,0.79,28,-178,2017-03-09T10:35:48.993Z
2165,1100,999,0,2114,1308,1015.96,3924,13.56,220,78.42,0.79,33,-183,2017-03-09T10:29:48.873Z
2170,1100,999,0,2113,1324,1015.76,3919,13.53,220,78.77,0.79,20,-192,2017-03-09T10:23:48.953Z
2170,1100,999,0,2112,1327,1015.67,3919,13.41,220,78.8,0.79,40,-181,2017-03-09T10:17:49.292Z
2165,1100,999,0,2111,1318,1015.72,3924,13.34,220,78.98,0.79,36,-184,2017-03-09T10:12:04.029Z
2165,11100,999,0,2110,1319,1015.77,3924,13.31,220,79.09,0.79,36,-188,2017-03-09T10:05:49.327Z
2167,1100,787,0,2109,1307,1015.29,3924,13.28,220,79.31,0.79,39,-183,2017-03-09T09:59:48.870Z
2170,1100,999,0,2108,1299,1015.34,3924,13.27,220,79.63,0.79,39,-183,2017-03-09T09:53:47.648Z
2167,1100,999,0,2107,1321,1015.13,3919,13.25,220,79.92,0.79,35,-180,2017-03-09T09:47:51.170Z
2167,1100,999,0,2106,1318,1015.07,3924,13.17,220,80.16,0.79,39,-189,2017-03-09T09:41:46.736Z
2173,1100,747,0,2104,1316,1014.94,3924,13.04,220,80.54,0.79,38,-178,2017-03-09T09:29:44.909Z
2176,1100,726,0,2102,1308,1014.55,3924,12.93,220,80.84,0.79,41,-180,2017-03-09T09:17:44.781Z
2179,1100,610,0,2101,1311,1014.49,3924,12.88,220,81.04,0.79,40,-181,2017-03-09T09:11:42.344Z
2176,1100,583,0,2100,1307,1014.39,3924,12.86,220,81.28,0.79,36,-185,2017-03-09T09:05:50.978Z
2173,1100,866,0,2099,1306,1014.25,3919,12.84,220,81.5,0.79,36,-185,2017-03-09T08:59:39.143Z
2176,1100,999,0,2098,1319,1014.21,3924,12.78,120,81.73,0.79,35,-177,2017-03-09T08:53:39.508Z
2176,1100,999,0,2097,1324,1014.21,3919,12.69,220,81.89,0.79,35,-173,2017-03-09T08:47:39.405Z
2179,1100,999,0,2096,1313,1014.03,3919,12.59,220,81.93,0.79,46,-185,2017-03-09T08:41:35.232Z
2176,1100,828,0,2095,1305,1013.97,3924,12.55,220,82.09,0.79,48,-180,2017-03-09T08:35:35.396Z
2176,1100,681,0,2094,1303,1013.74,3924,12.5,220,82.2,0.79,39,-193,2017-03-09T08:29:37.231Z
2173,1100,705,0,2093,1305,1013.62,3924,12.48,220,82.4,0.79,48,-177,2017-03-09T08:23:30.399Z
2179,1100,948,0,2092,1305,1013.54,3924,12.42,220,82.47,0.79,49,-181,2017-03-09T08:17:28.238Z
2176,1100,545,0,2091,1307,1013.43,3924,12.37,220,82.65,0.79,35,-181,2017-03-09T08:11:26.853Z
2173,1100,999,0,2090,1290,1013.27,3924,12.32,220,82.69,0.79,32,-193,2017-03-09T08:05:24.537Z
2176,1100,691,0,2089,1302,1013.17,3924,12.26,220,82.76,0.79,46,-188,2017-03-09T07:59:22.293Z
2182,1100,679,0,2088,1297,1013.01,3924,12.2,220,82.79,0.79,39,-193,2017-03-09T07:53:18.851Z
2176,1100,290,0,2087,1297,1012.84,3928,12.17,220,82.83,0.79,42,-193,2017-03-09T07:47:16.858Z
2176,1100,854,0,2086,1279,1012.8,3919,12.12,220,82.88,0.79,56,-185,2017-03-09T07:41:15.134Z
2179,1100,801,0,2085,1286,1012.75,3924,12.09,220,82.92,0.79,52,-188,2017-03-09T07:35:17.765Z
2173,1100,208,0,2084,1267,1012.57,3924,12.05,220,82.88,0.79,44,-193,2017-03-09T07:29:08.261Z
2179,1100,258,0,2083,1278,1012.4,3924,12.02,220,82.92,0.79,54,-193,2017-03-09T07:23:05.896Z
2173,1100,227,0,2082,1276,1012.35,3924,11.98,220,82.95,0.79,48,-192,2017-03-09T07:17:02.684Z
2176,1100,277,0,2081,1276,1012.29,3924,11.95,220,82.92,0.79,51,-193,2017-03-09T07:11:02.089Z
2179,1100,175,0,2080,1265,1012.06,3924,11.93,220,82.92,0.79,44,-196,2017-03-09T07:04:57.205Z
2182,1100,99,0,2079,1278,1011.99,3928,11.93,220,82.92,0.79,57,-178,2017-03-09T06:58:52.946Z
2176,1100,83,0,2078,1264,1011.83,3924,11.93,220,82.92,0.79,48,-201,2017-03-09T06:52:49.756Z
2176,1100,59,0,2077,1275,1011.65,3924,11.92,220,82.85,0.79,54,-196,2017-03-09T06:46:47.375Z
2179,1100,41,0,2076,1267,1011.63,3924,11.92,220,82.83,0.79,58,-177,2017-03-09T06:40:42.788Z
2173,1100,13,0,2075,1259,1011.58,3924,11.9,220,82.81,0.79,46,-198,2017-03-09T06:34:39.658Z
2176,1100,9,0,2074,1263,1011.38,3928,11.9,220,82.79,0.79,47,-192,2017-03-09T06:28:36.598Z
2176,1100,3,0,2073,1279,1011.23,3924,11.9,220,82.75,0.79,63,-183,2017-03-09T06:22:38.137Z
2170,1100,0,0,2072,1260,1011.05,3924,11.89,220,82.75,0.79,40,-197,2017-03-09T06:16:29.943Z
2170,1100,0,0,2070,1267,1010.86,3928,11.89,220,82.7,0.79,39,-198,2017-03-09T06:04:23.570Z
2179,1100,0,0,2069,1262,1010.65,3924,11.9,220,82.68,0.79,60,-186,2017-03-09T05:58:24.197Z
2170,1100,0,0,2068,1262,1010.44,3924,11.9,220,82.68,0.79,65,-185,2017-03-09T05:52:20.503Z
2176,1100,0,0,2067,1260,1010.32,3924,11.9,220,82.68,0.79,48,-197,2017-03-09T05:46:15.142Z
2179,1100,0,0,2066,1264,1010.18,3928,11.89,220,82.68,0.79,62,-185,2017-03-09T05:40:17.565Z
2170,1100,0,0,2065,1263,1010.16,3924,11.88,220,82.68,0.79,62,-180,2017-03-09T05:34:06.707Z
2170,1100,0,0,2064,1273,1010.05,3928,11.86,220,82.7,0.79,46,-193,2017-03-09T05:28:02.209Z
2170,1100,0,0,2063,1264,1009.96,3928,11.85,220,82.7,0.79,64,-185,2017-03-09T05:22:00.189Z
2173,1100,0,0,2062,1264,1010.02,3928,11.83,220,82.7,0.79,47,-196,2017-03-09T05:15:57.716Z
2170,1100,0,0,2061,1255,1009.99,3928,11.83,220,82.68,0.79,46,-191,2017-03-09T05:09:52.305Z
2170,1100,0,0,2060,1264,1009.85,3924,11.81,220,82.68,0.79,48,-189,2017-03-09T05:03:48.534Z
2176,1100,0,0,2059,1254,1009.88,3928,11.81,220,82.68,0.79,48,-199,2017-03-09T04:57:44.979Z
2173,1100,0,0,2058,1262,1009.78,3928,11.8,220,82.68,0.79,56,-189,2017-03-09T04:51:42.811Z
2170,1100,0,0,2057,1260,1009.79,3928,11.79,220,82.68,0.79,46,-196,2017-03-09T04:45:40.212Z
2176,1100,0,0,2056,1272,1009.69,3928,11.78,220,82.68,0.79,65,-184,2017-03-09T04:39:37.541Z
2170,1100,0,0,2055,1270,1009.66,3928,11.77,220,82.7,0.79,63,-185,2017-03-09T04:33:31.263Z
2173,1100,0,0,2054,1263,1009.7,3928,11.76,220,82.68,0.79,40,-200,2017-03-09T04:27:28.185Z
2167,1100,0,0,2053,1264,1009.64,3928,11.74,220,82.68,0.79,63,-181,2017-03-09T04:21:32.152Z
2173,1100,0,0,2051,1270,1009.62,3928,11.71,220,82.61,0.79,63,-185,2017-03-09T04:09:17.744Z
2176,1100,0,0,2050,1262,1009.57,3928,11.71,220,82.61,0.79,57,-184,2017-03-09T04:03:13.852Z
2167,1100,0,0,2049,1268,1009.41,3928,11.7,220,82.59,0.79,46,-196,2017-03-09T03:57:10.376Z
2173,1100,0,0,2048,1265,1009.43,3928,11.69,220,82.56,0.79,43,-193,2017-03-09T03:51:07.632Z
2170,1100,0,0,2047,1260,1009.32,3928,11.68,220,82.52,0.79,54,-181,2017-03-09T03:45:03.730Z
2170,1100,0,0,2046,1271,1009.43,3928,11.68,220,82.5,0.79,35,-194,2017-03-09T03:39:00.010Z
2170,1100,0,0,2045,1260,1009.24,3928,11.68,220,82.45,0.79,51,-184,2017-03-09T03:32:53.997Z
2173,1100,0,0,2044,1259,1009.22,3928,11.68,220,82.43,0.79,44,-196,2017-03-09T03:26:50.484Z
2170,1100,0,0,2043,1267,1009.37,3928,11.69,220,82.39,0.79,63,-185,2017-03-09T03:20:53.884Z
2165,1100,0,0,2042,1267,1009.34,3928,11.69,220,82.34,0.79,44,-196,2017-03-09T03:14:44.532Z
2165,1100,0,0,2041,1262,1009.32,3928,11.71,220,82.32,0.79,46,-199,2017-03-09T03:08:38.668Z
2165,1100,0,0,2039,1264,1009.31,3928,11.74,220,82.25,0.79,46,-194,2017-03-09T02:56:32.082Z
2167,1100,0,0,2038,1260,1009.36,3928,11.74,220,82.25,0.79,57,-183,2017-03-09T02:50:29.349Z
2170,1100,0,0,2037,1262,1009.49,3928,11.76,220,82.24,0.79,62,-185,2017-03-09T02:44:24.674Z
2173,1100,0,0,2036,1264,1009.49,3928,11.77,220,82.21,0.79,48,-196,2017-03-09T02:38:23.027Z
2167,1100,0,0,2035,1264,1009.49,3928,11.77,220,82.19,0.79,44,-189,2017-03-09T02:32:17.502Z
2167,1100,0,0,2034,1264,1009.37,3928,11.78,220,82.17,0.79,59,-180,2017-03-09T02:26:16.433Z
2165,1100,0,0,2033,1255,1009.34,3928,11.78,220,82.15,0.79,43,-196,2017-03-09T02:20:19.178Z
2165,1100,0,0,2032,1265,1009.38,3928,11.77,220,82.12,0.79,62,-183,2017-03-09T02:14:10.570Z
2167,1100,0,0,2031,1270,1009.49,3928,11.78,220,82.1,0.79,64,-184,2017-03-09T02:08:08.266Z
2165,1100,0,0,2030,1264,1009.6,3928,11.78,220,82.08,0.79,51,-194,2017-03-09T02:01:58.809Z
2167,1100,0,0,2029,1268,1009.61,3928,11.78,220,82.08,0.79,60,-185,2017-03-09T01:55:55.564Z
2173,1100,0,0,2028,1255,1009.53,3928,11.78,220,82.03,0.79,52,-199,2017-03-09T01:49:53.134Z
2167,1100,0,0,2027,1272,1009.41,3928,11.78,220,82.03,0.79,63,-188,2017-03-09T01:43:53.203Z
2165,1100,0,0,2026,1263,1009.37,3928,11.78,220,82.02,0.79,60,-183,2017-03-09T01:37:45.867Z
2165,1100,0,0,2025,1267,1009.48,3928,11.78,220,81.99,0.79,40,-196,2017-03-09T01:31:41.646Z
2167,1100,0,0,2024,1256,1009.46,3928,11.78,220,81.97,0.79,57,-186,2017-03-09T01:25:37.735Z
2162,1100,0,0,2023,1252,1009.59,3928,11.78,220,81.92,0.79,39,-196,2017-03-09T01:19:35.139Z
2165,1100,0,0,2022,1257,1009.77,3928,11.78,220,81.9,0.79,48,-200,2017-03-09T01:13:35.617Z
2162,1100,0,0,2021,1270,1009.8,3928,11.78,220,81.86,0.79,46,-197,2017-03-09T01:07:31.984Z
2162,1100,0,0,2020,1260,1009.8,3928,11.78,220,81.83,0.79,46,-196,2017-03-09T01:01:28.255Z
2167,1100,0,0,2019,1260,1009.77,3928,11.78,220,81.79,0.79,57,-183,2017-03-09T00:55:25.487Z
2159,1100,0,0,2018,1248,1009.78,3928,11.79,120,81.76,0.79,39,-197,2017-03-09T00:49:21.191Z
2162,1100,0,0,2017,1267,1009.79,3928,11.8,220,81.73,0.79,41,-193,2017-03-09T00:43:12.651Z
2159,1100,0,0,2016,1265,1009.54,3928,11.8,220,81.68,0.79,60,-184,2017-03-09T00:37:09.643Z
2162,1100,0,0,2015,1263,1009.54,3928,11.81,220,81.61,0.79,56,-185,2017-03-09T00:31:06.003Z
2165,1100,0,0,2014,1271,1009.71,3928,11.82,220,81.57,0.79,40,-191,2017-03-09T00:25:04.477Z
2159,1100,0,0,2013,1264,1009.86,3928,11.83,220,81.53,0.79,63,-185,2017-03-09T00:19:01.357Z
2165,1100,0,0,2012,1264,1009.77,3928,11.84,220,81.48,0.79,40,-197,2017-03-09T00:12:54.772Z
2162,1100,0,0,2011,1262,1009.67,3928,11.85,220,81.44,0.79,57,-185,2017-03-09T00:06:51.411Z
2162,1100,0,0,2009,1264,1009.66,3928,11.88,220,81.31,0.79,59,-186,2017-03-08T23:54:48.921Z
2165,1100,0,0,2008,1264,1009.53,3928,11.9,220,81.26,0.79,60,-185,2017-03-08T23:48:39.733Z
2165,1100,0,0,2007,1263,1009.49,3933,11.92,120,81.19,0.79,60,-185,2017-03-08T23:42:37.020Z
2159,1100,0,0,2006,1267,1009.46,3928,11.93,220,81.12,0.79,47,-201,2017-03-08T23:36:37.842Z
2156,1100,0,0,2004,1243,1009.5,3933,11.93,220,81.03,0.79,40,-194,2017-03-08T23:24:29.689Z
2162,1100,0,0,2003,1258,1009.39,3933,11.93,220,80.96,0.79,56,-178,2017-03-08T23:18:22.391Z
2162,1100,0,0,2002,1264,1009.38,3928,11.95,220,80.9,0.79,56,-186,2017-03-08T23:12:21.202Z
2159,1100,0,0,2001,1262,1009.25,3933,11.97,220,80.83,0.79,64,-184,2017-03-08T23:06:21.162Z
2159,1100,0,0,2000,1259,1009.18,3928,11.99,220,80.76,0.79,64,-185,2017-03-08T23:00:17.872Z
2156,1100,0,0,1999,1271,1009.33,3933,12.02,220,80.7,0.79,45,-196,2017-03-08T22:54:10.447Z
2159,1100,0,0,1998,1264,1009.41,3933,12.04,220,80.63,0.79,39,-194,2017-03-08T22:48:08.060Z
2159,1100,0,0,1997,1271,1009.45,3928,12.06,220,80.54,0.79,60,-185,2017-03-08T22:42:08.524Z
2153,1100,0,0,1996,1251,1009.52,3928,12.07,220,80.47,0.79,47,-199,2017-03-08T22:36:00.361Z
2156,1100,0,0,1995,1262,1009.56,3928,12.09,220,80.41,0.79,41,-194,2017-03-08T22:30:02.310Z
2156,1100,0,0,1994,1260,1009.45,3928,12.1,220,80.36,0.79,38,-196,2017-03-08T22:23:53.194Z
2165,1100,0,0,1993,1256,1009.41,3928,12.12,220,80.28,0.79,35,-193,2017-03-08T22:17:49.735Z
2159,1100,0,0,1992,1267,1009.42,3933,12.13,220,80.18,0.79,39,-191,2017-03-08T22:11:47.601Z
2153,1100,0,0,1990,1257,1009.18,3933,12.17,220,80.01,0.79,44,-198,2017-03-08T21:59:40.786Z
2159,1100,0,0,1989,1260,1009.33,3928,12.18,220,79.92,0.79,35,-194,2017-03-08T21:53:38.800Z
2156,1100,0,0,1988,1267,1009.34,3933,12.2,220,79.81,0.79,63,-189,2017-03-08T21:47:39.807Z
2153,1100,0,0,1987,1257,1009.39,3933,12.21,220,79.7,0.79,44,-193,2017-03-08T21:41:36.946Z
2153,1100,0,0,1986,1257,1009.35,3933,12.23,220,79.63,0.79,57,-186,2017-03-08T21:35:31.099Z
2159,1100,0,0,1985,1270,1009.33,3928,12.25,220,79.52,0.79,46,-200,2017-03-08T21:29:25.149Z
2159,1100,0,0,1984,1263,1009.16,3933,12.26,220,79.41,0.79,60,-183,2017-03-08T21:23:28.566Z
2153,1100,0,0,1983,1247,1009.08,3933,12.28,220,79.31,0.79,41,-197,2017-03-08T21:17:20.589Z
2150,1100,0,0,1982,1267,1009.17,3928,12.3,220,79.18,0.79,43,-196,2017-03-08T21:11:20.451Z
2150,1100,0,0,1981,1254,1009.14,3928,12.32,220,79.05,0.79,40,-192,2017-03-08T21:05:20.760Z
2153,1100,0,0,1980,1259,1009.15,3933,12.32,220,78.86,0.79,60,-185,2017-03-08T20:59:10.017Z
2156,1100,0,0,1979,1254,1009.15,3933,12.34,220,78.73,0.79,62,-189,2017-03-08T20:53:07.035Z
2153,1100,0,0,1978,1262,1009.24,3928,12.36,220,78.58,0.79,40,-196,2017-03-08T20:47:09.208Z
2156,1100,0,0,1977,1267,1009.17,3933,12.37,220,78.42,0.79,60,-178,2017-03-08T20:41:04.509Z
2147,1100,0,0,1975,1260,1009.1,3933,12.4,220,78.06,0.79,41,-193,2017-03-08T20:28:56.436Z
2156,1100,0,0,1974,1256,1009.25,3933,12.41,220,77.9,0.79,60,-185,2017-03-08T20:22:57.908Z
2147,1100,0,0,1973,1256,1009.16,3928,12.42,220,77.73,0.79,41,-197,2017-03-08T20:16:50.430Z
2150,1100,0,0,1971,1263,1009.08,3933,12.48,220,77.42,0.79,63,-186,2017-03-08T20:04:45.999Z
2150,1100,0,0,1970,1255,1009.23,3933,12.48,220,77.35,0.79,38,-193,2017-03-08T19:58:41.055Z
2153,1100,0,0,1969,1263,1009.28,3933,12.5,220,77.14,0.79,44,-205,2017-03-08T19:52:38.403Z
2153,1100,0,0,1968,1262,1009.12,3933,12.52,220,76.99,0.79,63,-185,2017-03-08T19:46:36.464Z
2150,1100,0,0,1967,1260,1009.03,3933,12.56,220,76.83,0.79,41,-194,2017-03-08T19:40:33.202Z
2147,1100,0,0,1966,1260,1009.05,3933,12.58,220,76.67,0.79,47,-194,2017-03-08T19:34:30.795Z
2147,1100,0,0,1965,1262,1008.96,3933,12.6,220,76.51,0.79,46,-196,2017-03-08T19:28:33.140Z
2147,1100,0,0,1964,1258,1008.82,3933,12.64,220,76.42,0.79,46,-197,2017-03-08T19:22:29.248Z
2150,1100,0,0,1963,1267,1008.74,3933,12.67,220,76.27,0.79,64,-185,2017-03-08T19:16:20.791Z
2147,1100,0,0,1962,1254,1008.8,3933,12.69,220,76.11,0.79,39,-195,2017-03-08T19:10:20.405Z
2153,1100,0,0,1961,1257,1008.82,3933,12.72,220,75.96,0.79,41,-201,2017-03-08T19:04:14.968Z
2147,1100,0,0,1960,1248,1008.78,3933,12.74,220,75.8,0.79,44,-204,2017-03-08T18:58:12.890Z
2150,1100,0,0,1959,1267,1008.66,3933,12.78,220,75.64,0.79,44,-201,2017-03-08T18:52:14.848Z
2153,1001100,0,0,1958,1257,1008.61,3933,12.81,220,75.52,0.79,39,-196,2017-03-08T18:46:11.637Z
2141,1100,0,0,1957,1251,1008.76,3933,12.85,220,75.37,0.79,43,-204,2017-03-08T18:40:06.119Z
2144,1100,0,0,1956,1254,1008.78,3933,12.86,220,75.21,0.79,43,-196,2017-03-08T18:34:06.705Z
2141,1100,0,0,1955,1251,1008.82,3933,12.88,220,75.03,0.79,43,-197,2017-03-08T18:28:00.025Z
2144,1100,0,0,1954,1264,1008.82,3933,12.93,220,74.87,0.79,40,-201,2017-03-08T18:21:57.281Z
2144,1100,4,0,1953,1259,1008.79,3933,12.96,220,74.74,0.79,40,-201,2017-03-08T18:15:54.596Z
2147,1100,8,0,1952,1249,1008.71,3933,12.99,220,74.62,0.79,44,-198,2017-03-08T18:09:57.069Z
2147,1100,17,0,1951,1255,1008.73,3933,13.02,220,74.52,0.79,40,-200,2017-03-08T18:03:56.052Z
2144,1100,30,0,1950,1255,1008.68,3933,13.06,220,74.39,0.79,43,-199,2017-03-08T17:57:48.276Z
2147,1100,42,0,1949,1260,1008.57,3933,13.1,220,74.29,0.79,46,-197,2017-03-08T17:51:46.296Z
2147,1100,61,0,1948,1263,1008.46,3933,13.13,220,74.18,0.79,43,-205,2017-03-08T17:45:49.016Z
2147,1100,79,0,1947,1267,1008.54,3933,13.16,220,74.13,0.79,44,-204,2017-03-08T17:39:41.950Z
2144,1100,98,0,1946,1259,1008.43,3933,13.19,220,74.03,0.79,35,-193,2017-03-08T17:33:40.815Z
2144,1100,113,0,1945,1267,1008.43,3933,13.24,220,73.96,0.79,44,-202,2017-03-08T17:27:44.885Z
2147,1100,125,0,1944,1255,1008.35,3933,13.28,220,73.87,0.79,44,-200,2017-03-08T17:21:36.777Z
2144,1100,142,0,1942,1264,1008.21,3933,13.33,220,73.75,0.79,44,-200,2017-03-08T17:09:40.321Z
2150,1100,153,0,1941,1241,1008.15,3933,13.39,220,73.73,0.79,36,-200,2017-03-08T17:03:32.830Z
2150,1100,168,0,1940,1244,1008.1,3933,13.42,220,73.68,0.79,48,-200,2017-03-08T16:57:33.379Z
2144,1100,289,0,1937,1276,1007.88,3933,13.53,220,73.58,0.79,50,-202,2017-03-08T16:39:31.253Z
2147,1100,283,0,1936,1262,1007.93,3933,13.56,220,73.51,0.79,63,-189,2017-03-08T16:33:26.251Z
2153,1100,246,0,1935,1260,1007.81,3933,13.6,220,73.46,0.79,54,-191,2017-03-08T16:27:29.415Z
2150,1100,238,0,1934,1272,1007.66,3937,13.62,220,73.43,0.79,48,-199,2017-03-08T16:21:23.629Z
2147,1100,382,0,1932,1279,1007.67,3933,13.72,220,73.47,0.79,43,-196,2017-03-08T16:09:21.518Z
2147,1100,406,0,1931,1276,1007.7,3933,13.73,220,73.42,0.79,48,-200,2017-03-08T16:03:19.583Z
2150,1100,380,0,1930,1275,1007.63,3933,13.76,220,73.39,0.79,48,-196,2017-03-08T15:57:19.038Z
2153,1100,330,0,1929,1278,1007.56,3933,13.8,220,73.42,0.79,47,-197,2017-03-08T15:51:22.632Z
2153,1100,360,0,1928,1268,1007.55,3933,13.83,220,73.36,0.79,48,-197,2017-03-08T15:45:17.720Z
2147,1100,302,0,1927,1272,1007.52,3933,13.87,220,73.46,0.79,47,-196,2017-03-08T15:39:16.027Z
2150,1100,465,0,1925,1276,1007.38,3933,13.92,220,73.62,0.79,44,-193,2017-03-08T15:27:19.760Z
2156,1100,472,0,1924,1281,1007.4,3933,13.98,220,73.71,0.79,39,-192,2017-03-08T15:21:21.449Z
2153,1100,421,0,1922,1299,1007.24,3933,14.05,220,74.09,0.79,51,-184,2017-03-08T15:09:13.612Z
2150,1100,549,0,1921,1299,1007.17,3933,14.07,220,74.25,0.79,44,-180,2017-03-08T15:03:13.173Z
2156,1100,800,0,1920,1310,1007.25,3933,14.09,220,74.36,0.79,46,-188,2017-03-08T14:57:16.298Z
2153,1100,551,0,1919,1296,1007.18,3933,14.12,220,74.45,0.79,39,-186,2017-03-08T14:51:13.167Z
2159,1100,732,0,1917,1304,1007.02,3933,14.11,220,74.59,0.79,55,-185,2017-03-08T14:39:13.174Z
2159,1100,290,0,1915,1267,1007.12,3937,14.17,220,74.8,0.79,49,-197,2017-03-08T14:27:12.901Z
2159,1100,334,0,1914,1272,1007.01,3933,14.22,220,75.04,0.79,51,-200,2017-03-08T14:21:13.154Z
2156,1100,622,0,1913,1292,1007.01,3933,14.27,220,75.18,0.79,44,-205,2017-03-08T14:15:13.050Z
2162,1100,597,0,1912,1295,1007.01,3933,14.3,220,75.36,0.79,45,-196,2017-03-08T14:09:13.125Z
2156,1100,438,0,1911,1298,1007.04,3933,14.33,220,75.57,0.79,51,-178,2017-03-08T14:03:13.262Z
2165,1100,613,0,1910,1308,1007.1,3933,14.36,220,75.81,0.79,35,-185,2017-03-08T13:57:13.669Z
2165,1100,941,0,1909,1304,1007.19,3937,14.36,220,75.91,0.79,36,-180,2017-03-08T13:51:15.193Z
2162,1100,654,0,1908,1304,1007.05,3933,14.39,220,76.12,0.79,35,-185,2017-03-08T13:45:21.978Z
2165,1100,999,0,1907,1321,1007.02,3937,14.39,220,76.34,0.79,35,-177,2017-03-08T13:39:15.697Z
2159,1100,999,0,1906,1305,1006.95,3933,14.36,220,76.35,0.79,32,-188,2017-03-08T13:33:19.298Z
2162,1100,999,0,1905,1299,1007.06,3933,14.35,220,76.33,0.79,31,-186,2017-03-08T13:27:18.584Z
2162,1100,545,0,1904,1294,1007.22,3933,14.35,220,76.43,0.79,44,-199,2017-03-08T13:21:18.151Z
2162,1100,658,0,1903,1304,1007.25,3937,14.41,220,76.62,0.79,36,-189,2017-03-08T13:15:18.567Z
2165,1100,839,0,1902,1287,1007.33,3933,14.44,220,76.78,0.79,46,-196,2017-03-08T13:09:25.970Z
2165,1100,666,0,1901,1305,1007.35,3937,14.5,220,77.07,0.79,40,-185,2017-03-08T13:03:20.877Z
2165,1100,778,0,1900,1302,1007.41,3937,14.55,220,77.4,0.79,39,-189,2017-03-08T12:57:20.986Z
2167,1100,999,0,1899,1315,1007.31,3933,14.6,220,77.69,0.79,30,-185,2017-03-08T12:51:29.276Z
2173,1100,999,0,1898,1313,1007.09,3933,14.57,220,77.82,0.79,40,-185,2017-03-08T12:45:26.980Z
2170,1100,999,0,1897,1324,1007.07,3933,14.57,220,77.98,0.79,31,-185,2017-03-08T12:39:25.148Z
2170,1100,999,0,1896,1318,1007.1,3933,14.52,220,78.09,0.79,33,-177,2017-03-08T12:33:26.209Z
2173,1100,999,0,1895,1307,1007.11,3933,14.49,220,78.28,0.79,30,-180,2017-03-08T12:27:27.801Z
2173,1100,999,0,1894,1311,1007.05,3933,14.47,220,78.41,0.79,31,-180,2017-03-08T12:21:30.285Z
2182,1100,999,0,1892,1318,1006.93,3937,14.51,220,78.97,0.79,38,-188,2017-03-08T12:09:32.396Z
